File: SIBC StrucMag/processed_XRD_spectra/Cu Metal_processed.csv
Angle,Intensity
5.00857,0.0133457
5.08735,0.00978132
5.16613,0.0147264
5.24491,0.00928514
5.32369,0.00998021
5.40247,0.0136381
5.48126,0.0153537
5.56004,0.00893989
5.63882,0.0102582
5.7176,0.00856056
5.79638,0.0105282
5.87516,0.00827299
5.95395,0.00976955
6.03273,0.00771432
6.11151,0.015319
6.19029,0.014064
6.26907,0.0170081
6.34785,0.0142957
6.42664,0.00875305
6.50542,0.00887555
6.5842,0.0156316
6.66298,0.01437
6.74176,0.0159968
6.82054,0.0101509
6.89933,0.00971847
6.97811,0.0146893
7.05689,0.0112641
7.13567,0.00693752
7.21445,0.0143999
7.29323,0.0122321
7.37202,0.00973807
7.4508,0.0103378
7.52958,0.00605431
7.60836,0.012225
7.68714,0.0137006
7.76592,0.0151533
7.84471,0.0122331
7.92349,0.0119009
8.00227,0.0108683
8.08105,0.0117366
8.15983,0.00880178
8.23861,0.0107776
8.3174,0.0119327
8.39618,0.0119962
8.47496,0.017738
8.55374,0.0162644
8.63252,0.0123767
8.7113,0.00921532
8.79009,0.0111421
8.86887,0.0137065
8.94765,0.00991365
9.02643,0.0148583
9.10521,0.0129245
9.184,0.0122231
9.26278,0.00941414
9.34156,0.0168283
9.42034,0.0143743
9.49912,0.0119009
9.5779,0.0132751
9.65669,0.0112753
9.73547,0.0096451
9.81425,0.0128974
9.89303,0.0118458
9.97181,0.0148556
10.0506,0.0170846
10.1294,0.0158751
10.2082,0.0143931
10.2869,0.00649914
10.3657,0.0195912
10.4445,0.0124024
10.5233,0.00373152
10.6021,0.0151464
10.6808,0.0196966
10.7596,0.0101395
10.8384,0.0135532
10.9172,0.0199349
10.996,0.0134239
11.0748,0.0112625
11.1535,0.0190637
11.2323,0.0109712
11.3111,0.0104254
11.3899,0.0135204
11.4687,0.00987749
11.5474,0.00754145
11.6262,0.0140088
11.705,0.0161588
11.7838,0.0112829
11.8626,0.016986
11.9414,0.012762
12.0201,0.0161102
12.0989,0.0131026
12.1777,0.0188736
12.2565,0.0150674
12.3353,0.00823898
12.414,0.0175039
12.4928,0.00861447
12.5716,0.0177419
12.6504,0.0126883
12.7292,0.0144727
12.808,0.0140557
12.8867,0.0103265
12.9655,0.0117045
13.0443,0.0103568
13.1231,0.0108834
13.2019,0.014511
13.2806,0.00981441
13.3594,0.00459043
13.4382,0.01238
13.517,0.00843603
13.5958,0.0140728
13.6746,0.00891126
13.7533,0.0176924
13.8321,0.0120564
13.9109,0.0100813
13.9897,0.00784253
14.0685,0.00770537
14.1472,0.0104932
14.226,0.00944145
14.3048,0.0108783
14.3836,0.00958483
14.4624,0.0116724
14.5412,0.0116181
14.6199,0.0143209
14.6987,0.0140227
14.7775,0.014529
14.8563,0.011815
14.9351,0.0182997
15.0138,0.0120371
15.0926,0.0105321
15.1714,0.00991746
15.2502,0.0110852
15.329,0.0108778
15.4077,0.00937934
15.4865,0.014293
15.5653,0.0100206
15.6441,0.0123754
15.7229,0.0146189
15.8017,0.0156657
15.8804,0.0067938
15.9592,0.0150238
16.038,0.0154438
16.1168,0.0169433
16.1956,0.0108108
16.2743,0.011875
16.3531,0.015029
16.4319,0.0159868
16.5107,0.0135493
16.5895,0.014668
16.6683,0.0119151
16.747,0.0202027
16.8258,0.013621
16.9046,0.00985548
16.9834,0.012233
17.0622,0.0101018
17.1409,0.0143102
17.2197,0.0141958
17.2985,0.00600946
17.3773,0.0130535
17.4561,0.0130183
17.5349,0.0135926
17.6136,0.0135574
17.6924,0.0114657
17.7712,0.0110516
17.85,0.0126205
17.9288,0.0122085
18.0075,0.00935311
18.0863,0.0138051
18.1651,0.011508
18.2439,0.0138133
18.3227,0.00970154
18.4015,0.0109644
18.4802,0.01169
18.559,0.0135331
18.6378,0.0147642
18.7166,0.0120509
18.7954,0.0102192
18.8741,0.00890854
18.9529,0.00530122
19.0317,0.00840421
19.1105,0.0132381
19.1893,0.0165075
19.2681,0.0167632
19.3468,0.0149803
19.4256,0.0194305
19.5044,0.0113881
19.5832,0.0123927
19.662,0.0126571
19.7407,0.016626
19.8195,0.0116439
19.8983,0.0101421
19.9771,0.00996818
20.0559,0.0128015
20.1347,0.0114585
20.2134,0.0137582
20.2922,0.00698118
20.371,0.011376
20.4498,0.00959452
20.5286,0.0170698
20.6073,0.0114403
20.6861,0.0152254
20.7649,0.0105163
20.8437,0.0130182
20.9225,0.0160549
21.0012,0.0132485
21.08,0.0130059
21.1588,0.0147581
21.2376,0.0098622
21.3164,0.010488
21.3952,0.0150944
21.4739,0.00842023
21.5527,0.0132703
21.6315,0.012179
21.7103,0.0137827
21.7891,0.0172552
21.8678,0.0146431
21.9466,0.0114423
22.0254,0.0136774
22.1042,0.014562
22.183,0.0177263
22.2618,0.0117738
22.3405,0.0162874
22.4193,0.0120794
22.4981,0.0161623
22.5769,0.0118228
22.6557,0.00940548
22.7344,0.00810974
22.8132,0.0101414
22.892,0.00828588
22.9708,0.00897396
23.0496,0.0124528
23.1284,0.0129147
23.2071,0.0163254
23.2859,0.011481
23.3647,0.00957731
23.4435,0.00836627
23.5223,0.00467281
23.601,0.0115284
23.6798,0.0140471
23.7586,0.0154504
23.8374,0.013106
23.9162,0.00866551
23.995,0.0138723
24.0737,0.0151334
24.1525,0.00818346
24.2313,0.0108528
24.3101,0.00751299
24.3889,0.0142021
24.4676,0.0149804
24.5464,0.0108832
24.6252,0.0109922
24.704,0.0123232
24.7828,0.0122936
24.8616,0.0135452
24.9403,0.0123688
25.0191,0.0130791
25.0979,0.0207227
25.1767,0.0134186
25.2555,0.0141215
25.3342,0.0105311
25.413,0.0126533
25.4918,0.0138892
25.5706,0.0105775
25.6494,0.00926636
25.7282,0.0129922
25.8069,0.013159
25.8857,0.011395
25.9645,0.011964
26.0433,0.0128619
26.1221,0.0150048
26.2008,0.0125319
26.2796,0.0149352
26.3584,0.00927619
26.4372,0.0124351
26.516,0.0163941
26.5947,0.016682
26.6735,0.0105559
26.7523,0.0158971
26.8311,0.0170249
26.9099,0.0135516
26.9887,0.0116207
27.0674,0.0149797
27.1462,0.0150101
27.225,0.00843176
27.3038,0.0101857
27.3826,0.0132255
27.4613,0.0143581
27.5401,0.0106878
27.6189,0.0188282
27.6977,0.0175222
27.7765,0.0115763
27.8553,0.0105059
27.934,0.0159528
28.0128,0.0150895
28.0916,0.0112633
28.1704,0.00850285
28.2492,0.0173381
28.3279,0.0157846
28.4067,0.0134594
28.4855,0.0104736
28.5643,0.0146076
28.6431,0.0119608
28.7219,0.0153041
28.8006,0.0152718
28.8794,0.0107848
28.9582,0.0129279
29.037,0.0103446
29.1158,0.019514
29.1945,0.0152375
29.2733,0.0101988
29.3521,0.0149854
29.4309,0.0175131
29.5097,0.0119607
29.5885,0.017321
29.6672,0.00743948
29.746,0.0105438
29.8248,0.0130411
29.9036,0.00768522
29.9824,0.00988956
30.0611,0.0113788
30.1399,0.0132321
30.2187,0.0135756
30.2975,0.0120438
30.3763,0.0153121
30.4551,0.00417556
30.5338,0.0153675
30.6126,0.00997661
30.6914,0.0101974
30.7702,0.0116674
30.849,0.0126295
30.9277,0.0105401
31.0065,0.0139819
31.0853,0.00765154
31.1641,0.00470765
31.2429,0.0123918
31.3217,0.0162813
31.4004,0.0187256
31.4792,0.0150444
31.558,0.0153102
31.6368,0.0144781
31.7156,0.0153525
31.7943,0.0114588
31.8731,0.00863856
31.9519,0.00953356
32.0307,0.013975
32.1095,0.0136902
32.1883,0.0124905
32.267,0.0157232
32.3458,0.0124061
32.4246,0.0080675
32.5034,0.00944425
32.5822,0.0102596
32.6609,0.00707758
32.7397,0.018836
32.8185,0.0115855
32.8973,0.0110513
32.9761,0.00603806
33.0548,0.00710202
33.1336,0.0145757
33.2124,0.0149985
33.2912,0.0130872
33.37,0.0142895
33.4488,0.0100244
33.5275,0.0182031
33.6063,0.013702
33.6851,0.0101654
33.7639,0.0140031
33.8427,0.0155445
33.9214,0.0143004
34.0002,0.00867634
34.079,0.00807691
34.1578,0.0110271
34.2366,0.0090506
34.3154,0.0132291
34.3941,0.00851618
34.4729,0.014229
34.5517,0.00888224
34.6305,0.0126317
34.7093,0.0132195
34.788,0.0126277
34.8668,0.00894945
34.9456,0.014792
35.0244,0.017054
35.1032,0.0109674
35.182,0.0159385
35.2607,0.0111405
35.3395,0.0135994
35.4183,0.0113118
35.4971,0.0125387
35.5759,0.0115398
35.6546,0.0108914
35.7334,0.0108294
35.8122,0.00935819
35.891,0.0148881
35.9698,0.0144762
36.0486,0.00999479
36.1273,0.0130742
36.2061,0.00828737
36.2849,0.0107396
36.3637,0.015864
36.4425,0.011595
36.5212,0.0158934
36.6,0.0142778
36.6788,0.0164864
36.7576,0.00560097
36.8364,0.0130821
36.9152,0.0155715
36.9939,0.00819242
37.0727,0.0115837
37.1515,0.00919834
37.2303,0.0131388
37.3091,0.0139096
37.3878,0.0121175
37.4666,0.0111205
37.5454,0.0115529
37.6242,0.0136309
37.703,0.0195992
37.7818,0.0158289
37.8605,0.0137172
37.9393,0.0130115
38.0181,0.0109438
38.0969,0.0132382
38.1757,0.00377006
38.2544,0.0112063
38.3332,0.0202111
38.412,0.0127885
38.4908,0.0123671
38.5696,0.0150248
38.6483,0.00869702
38.7271,0.0095229
38.8059,0.00847795
38.8847,0.00549102
38.9635,0.0181824
39.0423,0.0141772
39.121,0.00973341
39.1998,0.012951
39.2786,0.00973719
39.3574,0.00999113
39.4362,0.0147984
39.5149,0.0134974
39.5937,0.00906961
39.6725,0.0160185
39.7513,0.013621
39.8301,0.00566318
39.9089,0.011947
39.9876,0.00739586
40.0664,0.00941279
40.1452,0.011345
40.224,0.00604137
40.3028,0.00686797
40.3815,0.0145184
40.4603,0.0161165
40.5391,0.010568
40.6179,0.013322
40.6967,0.0114039
40.7755,0.0120849
40.8542,0.0130176
40.933,0.0143164
41.0118,0.0050496
41.0906,0.0114771
41.1694,0.00113482
41.2481,0.00997603
41.3269,0.0129378
41.4057,0.00578356
41.4845,0.0141815
41.5633,0.00865695
41.6421,0.017852
41.7208,0.00933284
41.7996,0.0162711
41.8784,0.0161449
41.9572,0.0204256
42.036,0.0183698
42.1147,0.0226129
42.1935,0.0201125
42.2723,0.0169754
42.3511,0.0186414
42.4299,0.0171301
42.5087,0.0185398
42.5874,0.0215409
42.6662,0.0227279
42.745,0.0301144
42.8238,0.0296739
42.9026,0.0458271
42.9813,0.0618925
43.0601,0.102509
43.1389,0.191509
43.2177,0.407867
43.2965,0.704648
43.3753,0.594647
43.454,0.438588
43.5328,0.19828
43.6116,0.098184
43.6904,0.0627088
43.7692,0.0386548
43.8479,0.0300711
43.9267,0.0313904
44.0055,0.0212976
44.0843,0.0216127
44.1631,0.0189536
44.2418,0.0177618
44.3206,0.0221364
44.3994,0.0162052
44.4782,0.0173192
44.557,0.0153836
44.6358,0.017677
44.7145,0.014276
44.7933,0.0105914
44.8721,0.0169072
44.9509,0.0112097
45.0297,0.0134984
45.1084,0.0133275
45.1872,0.0132628
45.266,0.0168588
45.3448,0.0164457
45.4236,0.0115548
45.5024,0.00867365
45.5811,0.00872987
45.6599,0.0146697
45.7387,0.0122343
45.8175,0.0115794
45.8963,0.0131697
45.975,0.00996493
46.0538,0.0124816
46.1326,0.00999429
46.2114,0.0133721
46.2902,0.0138417
46.369,0.0124876
46.4477,0.00944393
46.5265,0.0151416
46.6053,0.00793551
46.6841,0.0117762
46.7629,0.0152659
46.8416,0.0166711
46.9204,0.0185092
46.9992,0.0112163
47.078,0.0176681
47.1568,0.00948542
47.2356,0.0170979
47.3143,0.0139091
47.3931,0.0157653
47.4719,0.0100348
47.5507,0.0095636
47.6295,0.0116457
47.7082,0.00966836
47.787,0.0137203
47.8658,0.00774866
47.9446,0.0122018
48.0234,0.0107921
48.1022,0.0124893
48.1809,0.0122141
48.2597,0.00843552
48.3385,0.0102133
48.4173,0.0113285
48.4961,0.0135755
48.5748,0.0168793
48.6536,0.0175254
48.7324,0.0177347
48.8112,0.0211326
48.89,0.0231599
48.9688,0.0213651
49.0475,0.0200524
49.1263,0.0198493
49.2051,0.0203238
49.2839,0.0247877
49.3627,0.0212418
49.4414,0.0223503
49.5202,0.020858
49.599,0.0278941
49.6778,0.029553
49.7566,0.0371441
49.8354,0.0398474
49.9141,0.0534295
49.9929,0.0731473
50.0717,0.116938
50.1505,0.200155
50.2293,0.337457
50.308,0.637721
50.3868,0.978954
50.4656,0.853975
50.5444,0.703488
50.6232,0.394212
50.7019,0.192131
50.7807,0.117258
50.8595,0.0759784
50.9383,0.0502354
51.0171,0.0364531
51.0959,0.0300879
51.1746,0.0238621
51.2534,0.0234215
51.3322,0.0215994
51.411,0.0138042
51.4898,0.0150909
51.5685,0.0133086
51.6473,0.0164987
51.7261,0.0091716
51.8049,0.00945471
51.8837,0.0184433
51.9625,0.0176542
52.0412,0.0156962
52.12,0.0130249
52.1988,0.0111031
52.2776,0.0113237
52.3564,0.012971
52.4351,0.0124878
52.5139,0.0129076
52.5927,0.0107694
52.6715,0.00919576
52.7503,0.0100088
52.8291,0.0114386
52.9078,0.0140898
52.9866,0.0157851
53.0654,0.00916994
53.1442,0.0086501
53.223,0.00769487
53.3017,0.0154993
53.3805,0.0180352
53.4593,0.0116529
53.5381,0.013058
53.6169,0.0141717
53.6957,0.0139665
53.7744,0.0120158
53.8532,0.017094
53.932,0.0184485
54.0108,0.0114853
54.0896,0.00864363
54.1683,0.0103016
54.2471,0.0115731
54.3259,0.0126501
54.4047,0.0142813
54.4835,0.0214809
54.5623,0.0233811
54.641,0.0160119
54.7198,0.0207437
54.7986,0.018753
54.8774,0.0089021
54.9562,0.0086062
55.0349,0.0113689
55.1137,0.0119621
55.1925,0.0136715
55.2713,0.0125832
55.3501,0.0146577
55.4289,0.0109615
55.5076,0.0140182
55.5864,0.012
55.6652,0.00945589
55.744,0.0158952
55.8228,0.0148114
55.9015,0.0152955
55.9803,0.0144418
56.0591,0.0131237
56.1379,0.0140697
56.2167,0.0102866
56.2954,0.0148896
56.3742,0.0140316
56.453,0.0130798
56.5318,0.0146162
56.6106,0.0102882
56.6894,0.013725
56.7681,0.0153419
56.8469,0.0116238
56.9257,0.00763784
57.0045,0.0129766
57.0833,0.0165517
57.162,0.00720136
57.2408,0.0146436
57.3196,0.011572
57.3984,0.00436822
57.4772,0.0129058
57.556,0.0152796
57.6347,0.0107457
57.7135,0.0155466
57.7923,0.0141327
57.8711,0.0106968
57.9499,0.00894351
58.0286,0.014526
58.1074,0.0110511
58.1862,0.00939278
58.265,0.0208011
58.3438,0.011445
58.4226,0.0140769
58.5013,0.0162351
58.5801,0.011416
58.6589,0.0112667
58.7377,0.0148371
58.8165,0.0159021
58.8952,0.0133115
58.974,0.0113851
59.0528,0.00660329
59.1316,0.0139121
59.2104,0.0122081
59.2892,0.014071
59.3679,0.0117327
59.4467,0.0127793
59.5255,0.00992706
59.6043,0.00672748
59.6831,0.0158916
59.7618,0.0116536
59.8406,0.0103248
59.9194,0.0123333
59.9982,0.0132958
60.077,0.0102549
60.1558,0.0190136
60.2345,0.00456763
60.3133,0.015629
60.3921,0.00815749
60.4709,0.0164943
60.5497,0.0190605
60.6284,0.0139004
60.7072,0.0119077
60.786,0.00990743
60.8648,0.00622803
60.9436,0.00926439
61.0224,0.0119153
61.1011,0.009293
61.1799,0.0135799
61.2587,0.012127
61.3375,0.013642
61.4163,0.0162888
61.495,0.0107294
61.5738,0.0161591
61.6526,0.0127285
61.7314,0.0102496
61.8102,0.0161927
61.8889,0.0150005
61.9677,0.0109356
62.0465,0.0167045
62.1253,0.0126564
62.2041,0.0057205
62.2829,0.0144882
62.3616,0.0140217
62.4404,0.00773815
62.5192,0.0148521
62.598,0.0180383
62.6768,0.015809
62.7555,0.0135255
62.8343,0.00938924
62.9131,0.012993
62.9919,0.00731478
63.0707,0.0127532
63.1495,0.00702302
63.2282,0.0155505
63.307,0.0127728
63.3858,0.0116754
63.4646,0.0156289
63.5434,0.0174909
63.6221,0.0101091
63.7009,0.0113454
63.7797,0.00784883
63.8585,0.00647297
63.9373,0.0138441
64.0161,0.0140685
64.0948,0.0157823
64.1736,0.0110388
64.2524,0.011726
64.3312,0.00628345
64.41,0.0150731
64.4887,0.0133965
64.5675,0.0118806
64.6463,0.00931701
64.7251,0.0129251
64.8039,0.0110582
64.8827,0.0119931
64.9614,0.011478
65.0402,0.0136244
65.119,0.0124663
65.1978,0.00743078
65.2766,0.00927513
65.3553,0.0172167
65.4341,0.0118559
65.5129,0.0149499
65.5917,0.0132284
65.6705,0.0130929
65.7493,0.0120357
65.828,0.00971745
65.9068,0.0165291
65.9856,0.0162586
66.0644,0.0116789
66.1432,0.014147
66.2219,0.0109721
66.3007,0.0121908
66.3795,0.0128607
66.4583,0.00667428
66.5371,0.0124972
66.6159,0.0161463
66.6946,0.011799
66.7734,0.0131467
66.8522,0.0118545
66.931,0.0121906
67.0098,0.00816364
67.0885,0.013656
67.1673,0.0140554
67.2461,0.0131935
67.3249,0.00808193
67.4037,0.0136966
67.4825,0.013962
67.5612,0.00661792
67.64,0.00610264
67.7188,0.017106
67.7976,0.0111231
67.8764,0.0103968
67.9551,0.0128096
68.0339,0.0171864
68.1127,0.0139142
68.1915,0.00792728
68.2703,0.012456
68.349,0.0144317
68.4278,0.0121932
68.5066,0.0162549
68.5854,0.0180406
68.6642,0.0146046
68.743,0.0115081
68.8217,0.0111396
68.9005,0.016863
68.9793,0.0133223
69.0581,0.0135044
69.1369,0.0125108
69.2156,0.00990543
69.2944,0.0146743
69.3732,0.0132988
69.452,0.0154646
69.5308,0.00614557
69.6096,0.0158685
69.6883,0.0130368
69.7671,0.0069087
69.8459,0.0127623
69.9247,0.0110987
70.0035,0.0150786
70.0822,0.0122738
70.161,0.0100818
70.2398,0.0158621
70.3186,0.0122751
70.3974,0.0168391
70.4762,0.00993526
70.5549,0.0171799
70.6337,0.0117639
70.7125,0.0118763
70.7913,0.017718
70.8701,0.0186571
70.9488,0.0142887
71.0276,0.0159634
71.1064,0.0166572
71.1852,0.0220145
71.264,0.0170434
71.3428,0.0178986
71.4215,0.0167043
71.5003,0.0149913
71.5791,0.0152708
71.6579,0.0179418
71.7367,0.0186006
71.8154,0.017077
71.8942,0.0218851
71.973,0.0199085
72.0518,0.0112299
72.1306,0.0173
72.2094,0.0123597
72.2881,0.0143863
72.3669,0.0144086
72.4457,0.0126932
72.5245,0.0164766
72.6033,0.017555
72.682,0.0145883
72.7608,0.014102
72.8396,0.0187404
72.9184,0.0201749
72.9972,0.0174178
73.076,0.0203694
73.1547,0.017235
73.2335,0.0183465
73.3123,0.0261114
73.3911,0.0231925
73.4699,0.0251772
73.5486,0.0341142
73.6274,0.038828
73.7062,0.0541207
73.785,0.0811816
73.8638,0.124455
73.9425,0.227276
74.0213,0.429422
74.1001,0.57085
74.1789,0.396811
74.2577,0.373606
74.3365,0.344504
74.4152,0.18251
74.494,0.0982767
74.5728,0.0580792
74.6516,0.0459897
74.7304,0.0327381
74.8091,0.02779
74.8879,0.0257302
74.9667,0.0235634
75.0455,0.0140835
75.1243,0.0186488
75.2031,0.0129791
75.2818,0.0170617
75.3606,0.0128167
75.4394,0.0121787
75.5182,0.0115829
75.597,0.0138094
75.6757,0.00793959
75.7545,0.0144018
75.8333,0.0119314
75.9121,0.0110327
75.9909,0.0176103
76.0697,0.0101261
76.1484,0.0108536
76.2272,0.0137761
76.306,0.0106658
76.3848,0.0133396
76.4636,0.0115519
76.5423,0.0130575
76.6211,0.0163762
76.6999,0.0084115
76.7787,0.0118367
76.8575,0.0108458
76.9363,0.00865445
77.015,0.0142555
77.0938,0.0103997
77.1726,0.0126151
77.2514,0.0139432
77.3302,0.00772007
77.4089,0.012357
77.4877,0.00961362
77.5665,0.0139706
77.6453,0.0157534
77.7241,0.01561
77.8029,0.0127741
77.8816,0.00995818
77.9604,0.0173869
78.0392,0.0159763
78.118,0.0124129
78.1968,0.00992482
78.2755,0.0136874
78.3543,0.0126673
78.4331,0.0129952
78.5119,0.0102557
78.5907,0.00926631
78.6695,0.0117197
78.7482,0.0123406
78.827,0.0108449
78.9058,0.0152855
78.9846,0.0146344
79.0634,0.0106677
79.1421,0.0064842
79.2209,0.00700405
79.2997,0.0165964
79.3785,0.0153712
79.4573,0.0138535
79.536,0.0110562
79.6148,0.0125194
79.6936,0.0170144
79.7724,0.0124594
79.8512,0.0117389
79.93,0.0139634
80.0087,0.0164659
80.0875,0.0143071
80.1663,0.0203606
80.2451,0.0106204
80.3239,0.00700647
80.4026,0.0129009
80.4814,0.0128776
80.5602,0.0165066
80.639,0.0100302
80.7178,0.016895
80.7966,0.0135168
80.8753,0.01707
80.9541,0.0162591
81.0329,0.0207205
81.1117,0.0193449
81.1905,0.0165653
81.2692,0.0124298
81.348,0.0137186
81.4268,0.0176669
81.5056,0.0120214
81.5844,0.0147226
81.6632,0.0142755
81.7419,0.0171794
81.8207,0.0134902
81.8995,0.0173689
81.9783,0.0111447
82.0571,0.008874
82.1358,0.0140933
82.2146,0.0142265
82.2934,0.0129864
82.3722,0.0164016
82.451,0.0126029
82.5298,0.00753076
82.6085,0.00971106
82.6873,0.0158158
82.7661,0.0113574
82.8449,0.0139481
82.9237,0.0131337
83.0024,0.013431
83.0812,0.00878361
83.16,0.00863306
83.2388,0.0151481
83.3176,0.0126145
83.3964,0.0155247
83.4751,0.0103817
83.5539,0.00828782
83.6327,0.0129403
83.7115,0.00916841
83.7903,0.011198
83.869,0.0104308
83.9478,0.011944
84.0266,0.0144931
84.1054,0.0146575
84.1842,0.0148154
84.263,0.011004
84.3417,0.0136458
84.4205,0.00942552
84.4993,0.0168832
84.5781,0.0136631
84.6569,0.0121178
84.7356,0.0088974
84.8144,0.0128662
84.8932,0.0118867
84.972,0.00699026
85.0508,0.0107522
85.1296,0.0144455
85.2083,0.0186034
85.2871,0.0127335
85.3659,0.0146491
85.4447,0.0145557
85.5235,0.0155682
85.6022,0.0116065
85.681,0.00848229
85.7598,0.0147447
85.8386,0.0104532
85.9174,0.0165751
85.9961,0.0142304
86.0749,0.0129854
86.1537,0.0117735
86.2325,0.00951628
86.3113,0.00714095
86.3901,0.00963547
86.4688,0.0142203
86.5476,0.0172391
86.6264,0.0161065
86.7052,0.0124061
86.784,0.00982773
86.8627,0.0136489
86.9415,0.00996729
87.0203,0.0105017
87.0991,0.0111771
87.1779,0.018085
87.2567,0.0147884
87.3354,0.00907267
87.4142,0.0144371
87.493,0.0129991
87.5718,0.0141497
87.6506,0.00728253
87.7293,0.0103432
87.8081,0.00577467
87.8869,0.011163
87.9657,0.0126027
88.0445,0.0132955
88.1233,0.012998
88.202,0.00728909
88.2808,0.00624152
88.3596,0.00927526
88.4384,0.0113334
88.5172,0.013702
88.5959,0.0110147
88.6747,0.010843
88.7535,0.0108171
88.8323,0.0161538
88.9111,0.0175697
88.9899,0.0185322
89.0686,0.0223067
89.1474,0.0236472
89.2262,0.02937
89.305,0.0339849
89.3838,0.0466579
89.4625,0.0528188
89.5413,0.0846162
89.6201,0.125774
89.6989,0.178919
89.7777,0.269566
89.8565,0.347703
89.9352,0.32068
90.014,0.252966
90.0928,0.240898
90.1716,0.229262
90.2504,0.167373
90.3291,0.109301
90.4079,0.0706237
90.4867,0.0526377
90.5655,0.034728
90.6443,0.0301728
90.7231,0.0217673
90.8018,0.0195359
90.8806,0.0188987
90.9594,0.0179184
91.0382,0.0159298
91.117,0.0148484
91.1957,0.0128215
91.2745,0.0117773
91.3533,0.0128126
91.4321,0.0124802
91.5109,0.0108121
91.5896,0.0111205
91.6684,0.0124177
91.7472,0.0124147
91.826,0.0106875
91.9048,0.0113597
91.9836,0.0178781
92.0623,0.00733247
92.1411,0.0141546
92.2199,0.0101844
92.2987,0.0111475
92.3775,0.00733082
92.4562,0.00985965
92.535,0.0129006
92.6138,0.0141991
92.6926,0.0152742
92.7714,0.0111068
92.8502,0.0122115
92.9289,0.0160104
93.0077,0.0149666
93.0865,0.0117298
93.1653,0.0108643
93.2441,0.0118919
93.3228,0.00792753
93.4016,0.0103358
93.4804,0.0102265
93.5592,0.0115989
93.638,0.0147182
93.7168,0.005047
93.7955,0.0114915
93.8743,0.0129888
93.9531,0.00467881
94.0319,0.00580605
94.1107,0.00973303
94.1894,0.00837223
94.2682,0.0148044
94.347,0.0112784
94.4258,0.0112299
94.5046,0.0178329
94.5834,0.0143667
94.6621,0.0130586
94.7409,0.0190485
94.8197,0.0199045
94.8985,0.0259486
94.9773,0.0325616
95.056,0.0542168
95.1348,0.0604139
95.2136,0.0518025
95.2924,0.0422891
95.3712,0.0410925
95.45,0.0394954
95.5287,0.0307719
95.6075,0.0222755
95.6863,0.0192744
95.7651,0.0185846
95.8439,0.0103736
95.9226,0.0185943
96.0014,0.0147032
96.0802,0.0119437
96.159,0.0169161
96.2378,0.0139961
96.3166,0.0142868
96.3953,0.0125124
96.4741,0.011788
96.5529,0.0145693
96.6317,0.0116754
96.7105,0.0143539
96.7892,0.0179556
96.868,0.0175896
96.9468,0.0124064
97.0256,0.0100321
97.1044,0.0130723
97.1831,0.0120031
97.2619,0.0146473
97.3407,0.00947037
97.4195,0.0152771
97.4983,0.0101073
97.5771,0.0146495
97.6558,0.0109129
97.7346,0.00707133
97.8134,0.00682823
97.8922,0.01405
97.971,0.00655144
98.0497,0.00828933
98.1285,0.00977283
98.2073,0.0080764
98.2861,0.0101893
98.3649,0.0116588
98.4437,0.012457
98.5224,0.0128685
98.6012,0.0135938
98.68,0.015015
98.7588,0.0188579
98.8376,0.0137736
98.9163,0.0167237
98.9951,0.0179963
99.0739,0.0168767
99.1527,0.0210819
99.2315,0.010676
99.3103,0.013993
99.389,0.013634
99.4678,0.0094864
99.5466,0.0132653
99.6254,0.00862187
99.7042,0.0136653
99.7829,0.0137256
99.8617,0.0070404
99.9405,0.0127639
100.019,0.0112142
100.098,0.0109247
100.177,0.0143769
100.256,0.0102051
100.334,0.0114245
100.413,0.0162622
100.492,0.0096526
100.571,0.0118545
100.65,0.0144641
100.728,0.0120131
100.807,0.0156295
100.886,0.0161765
100.965,0.0165497
101.043,0.0183401
101.122,0.0144157
101.201,0.0144775
101.28,0.0129368
101.359,0.0156782
101.437,0.0101227
101.516,0.0120417
101.595,0.00824543
101.674,0.011398
101.752,0.0112861
101.831,0.0134439
101.91,0.0134021
101.989,0.00736611
102.068,0.0163401
102.146,0.0120908
102.225,0.018881
102.304,0.0131933
102.383,0.0137783
102.462,0.011155
102.54,0.0109033
102.619,0.00607872
102.698,0.0178372
102.777,0.012488
102.855,0.0150521
102.934,0.0147285
103.013,0.0134301
103.092,0.0144243
103.171,0.00769822
103.249,0.00954535
103.328,0.0108944
103.407,0.0141857
103.486,0.0148946
103.564,0.0122674
103.643,0.0115837
103.722,0.0145533
103.801,0.0134537
103.88,0.00962665
103.958,0.0124652
104.037,0.0114644
104.116,0.00923694
104.195,0.0146474
104.274,0.00915236
104.352,0.011539
104.431,0.0162668
104.51,0.0115594
104.589,0.0111862
104.667,0.0122069
104.746,0.0111725
104.825,0.0103808
104.904,0.0117168
104.983,0.0108916
105.061,0.0126432
105.14,0.0106703
105.219,0.0133254
105.298,0.0193008
105.376,0.0159081
105.455,0.0120063
105.534,0.0078289
105.613,0.0103596
105.692,0.0148506
105.77,0.0111868
105.849,0.0115478
105.928,0.0114566
106.007,0.0100768
106.085,0.00767832
106.164,0.0175444
106.243,0.0117889
106.322,0.0103067
106.401,0.0141385
106.479,0.0135989
106.558,0.0140624
106.637,0.0130384
106.716,0.0127754
106.795,0.0134475
106.873,0.00526358
106.952,0.0107705
107.031,0.00848445
107.11,0.0096857
107.188,0.0107443
107.267,0.0118345
107.346,0.0123325
107.425,0.00655928
107.504,0.0109332
107.582,0.00710554
107.661,0.00857907
107.74,0.00858227
107.819,0.00813089
107.897,0.0126511
107.976,0.0170254
108.055,0.0155483
108.134,0.0138255
108.213,0.0102236
108.291,0.0140296
108.37,0.0144413
108.449,0.0148181
108.528,0.0103228
108.606,0.023409
108.685,0.0128478
108.764,0.00781377
108.843,0.0165595
108.922,0.016489
109,0.0129456
109.079,0.0147352
109.158,0.0145275
109.237,0.00968894
109.316,0.0144906
109.394,0.0107975
109.473,0.0131462
109.552,0.016648
109.631,0.0151393
109.709,0.0122824
109.788,0.0133507
109.867,0.0131782
109.946,0.00941037
110.025,0.0192347
110.103,0.00889069
110.182,0.0104166
110.261,0.00889205
110.34,0.0139346
110.418,0.0131784
110.497,0.0113521
110.576,0.0118357
110.655,0.0134887
110.734,0.0134201
110.812,0.0101446
110.891,0.0101788
110.97,0.0115243
111.049,0.0132777
111.128,0.012862
111.206,0.0133029
111.285,0.0134305
111.364,0.00993847
111.443,0.0127516
111.521,0.0102225
111.6,0.0129975
111.679,0.00943257
111.758,0.0165896
111.837,0.0142437
111.915,0.011505
111.994,0.00968364
112.073,0.0133361
112.152,0.00983179
112.23,0.0117983
112.309,0.0134466
112.388,0.0111805
112.467,0.0105589
112.546,0.0144998
112.624,0.0128539
112.703,0.0167734
112.782,0.0144174
112.861,0.00964366
112.939,0.00894561
113.018,0.0151027
113.097,0.0184102
113.176,0.0131161
113.255,0.0131959
113.333,0.0133768
113.412,0.0108525
113.491,0.00762426
113.57,0.00717821
113.649,0.0163478
113.727,0.00809861
113.806,0.0130954
113.885,0.0131859
113.964,0.00844567
114.042,0.0150292
114.121,0.00814271
114.2,0.0103898
114.279,0.0153041
114.358,0.0123476
114.436,0.0150669
114.515,0.0128588
114.594,0.0145237
114.673,0.0121798
114.751,0.0107842
114.83,0.00924981
114.909,0.00874194
114.988,0.00916023
115.067,0.00964803
115.145,0.0152982
115.224,0.0114108
115.303,0.00804627
115.382,0.008202
115.461,0.0124489
115.539,0.0158528
115.618,0.0132779
115.697,0.0106267
115.776,0.0167466
115.854,0.0127012
115.933,0.0168563
116.012,0.0147811
116.091,0.018524
116.17,0.0242969
116.248,0.0286326
116.327,0.0328378
116.406,0.0387518
116.485,0.0518353
116.563,0.0645502
116.642,0.0851359
116.721,0.106067
116.8,0.115075
116.879,0.108171
116.957,0.0930341
117.036,0.0810243
117.115,0.0728829
117.194,0.0740702
117.272,0.077269
117.351,0.062032
117.43,0.0486134
117.509,0.0376654
117.588,0.028689
117.666,0.0198936
117.745,0.0199131
117.824,0.0148205
117.903,0.0172632
117.982,0.00654633
118.06,0.00781224
118.139,0.0113853
118.218,0.0147016
118.297,0.00951175
118.375,0.0137913
118.454,0.0093462
118.533,0.0159531
118.612,0.0129515
118.691,0.00830194
118.769,0.00850299
118.848,0.00802471
118.927,0.00816126
119.006,0.0117959
119.084,0.0114942
119.163,0.00942834
119.242,0.0167563
119.321,0.0151817
119.4,0.00955996
119.478,0.00780551
119.557,0.0100353
119.636,0.0100911
119.715,0.0124792
119.793,0.0122814
119.872,0.00828363
119.951,0.00527774
119.99,0.0102405