File: SIBC StrucMag/processed_XRD_spectra/Fu21Gd-SM1a_processed.csv
Angle,Intensity
5.01057,0.0217353
5.08935,0.0254833
5.16813,0.0203026
5.24691,0.0304673
5.32569,0.0256672
5.40447,0.0242833
5.48326,0.0286354
5.56204,0.0244389
5.64082,0.0252548
5.7196,0.027491
5.79838,0.0201383
5.87716,0.0161603
5.95595,0.0284821
6.03473,0.025735
6.11351,0.0378767
6.19229,0.0206575
6.27107,0.0183607
6.34985,0.0168159
6.42864,0.0248365
6.50742,0.0306643
6.5862,0.0212617
6.66498,0.0205989
6.74376,0.0199291
6.82254,0.023221
6.90133,0.027824
6.98011,0.0293924
7.05889,0.0213006
7.13767,0.0357734
7.21645,0.0305437
7.29523,0.0380059
7.37402,0.0406585
7.4528,0.0585275
7.53158,0.142774
7.61036,0.225312
7.68914,0.0564796
7.76792,0.0302877
7.84671,0.0188049
7.92549,0.029927
8.00427,0.0349755
8.08305,0.0273512
8.16183,0.0150906
8.24061,0.0171008
8.3194,0.0154712
8.39818,0.0281123
8.47696,0.0228182
8.55574,0.0328728
8.63452,0.0232164
8.7133,0.021756
8.79209,0.0202493
8.87087,0.0221655
8.94965,0.0170778
9.02843,0.0199962
9.10721,0.0184149
9.186,0.0238401
9.26478,0.022367
9.34356,0.0225808
9.42234,0.0154961
9.50112,0.0203867
9.5799,0.0240772
9.65869,0.0199177
9.73747,0.0261747
9.81625,0.0326306
9.89503,0.0290231
9.97381,0.0198734
10.0526,0.0317838
10.1314,0.0203113
10.2102,0.0241131
10.2889,0.0178907
10.3677,0.0181047
10.4465,0.0192832
10.5253,0.0231928
10.6041,0.0187173
10.6828,0.036434
10.7616,0.0200789
10.8404,0.0239775
10.9192,0.0293026
10.998,0.024351
11.0768,0.0304822
11.1555,0.0170117
11.2343,0.0202132
11.3131,0.019403
11.3919,0.0295529
11.4707,0.0197559
11.5494,0.0228389
11.6282,0.027533
11.707,0.0150183
11.7858,0.0224139
11.8646,0.0253914
11.9434,0.0273566
12.0221,0.0248204
12.1009,0.0169891
12.1797,0.021325
12.2585,0.0253387
12.3373,0.0129234
12.416,0.0301258
12.4948,0.0267665
12.5736,0.0221746
12.6524,0.0323145
12.7312,0.0225075
12.81,0.0292236
12.8887,0.021828
12.9675,0.0229951
13.0463,0.025109
13.1251,0.022302
13.2039,0.021429
13.2826,0.0136467
13.3614,0.0206862
13.4402,0.010019
13.519,0.0260321
13.5978,0.0280655
13.6766,0.0156268
13.7553,0.0255077
13.8341,0.0236608
13.9129,0.0160711
13.9917,0.0239574
14.0705,0.019849
14.1492,0.0262499
14.228,0.0244041
14.3068,0.0213981
14.3856,0.0215483
14.4644,0.0158888
14.5432,0.0307725
14.6219,0.0220019
14.7007,0.0232298
14.7795,0.0152304
14.8583,0.019071
14.9371,0.0192254
15.0158,0.0279215
15.0946,0.0463202
15.1734,0.0506683
15.2522,0.0303113
15.331,0.0211684
15.4097,0.0333836
15.4885,0.0247935
15.5673,0.0216478
15.6461,0.0251156
15.7249,0.0273579
15.8037,0.0172886
15.8824,0.0174526
15.9612,0.0235928
16.04,0.0269866
16.1188,0.0261017
16.1976,0.0251934
16.2763,0.0207789
16.3551,0.0232992
16.4339,0.021117
16.5127,0.03102
16.5915,0.0271156
16.6703,0.0262115
16.749,0.0263834
16.8278,0.0276314
16.9066,0.0288558
16.9854,0.0235122
17.0642,0.022494
17.1429,0.0272506
17.2217,0.0335445
17.3005,0.0205232
17.3793,0.0206983
17.4581,0.0233682
17.5369,0.0223159
17.6156,0.0249109
17.6944,0.0284747
17.7732,0.0264144
17.852,0.0319677
17.9308,0.0231656
18.0095,0.0280354
18.0883,0.0247131
18.1671,0.0326027
18.2459,0.0198424
18.3247,0.0199712
18.4035,0.0264495
18.4822,0.0241519
18.561,0.0203375
18.6398,0.0231216
18.7186,0.0269234
18.7974,0.0177988
18.8761,0.0247166
18.9549,0.0283908
19.0337,0.0249031
19.1125,0.0249928
19.1913,0.028659
19.2701,0.0251642
19.3488,0.0152727
19.4276,0.0169648
19.5064,0.0228029
19.5852,0.0278473
19.664,0.030179
19.7427,0.0229344
19.8215,0.0202043
19.9003,0.0255841
19.9791,0.0243458
20.0579,0.02028
20.1367,0.0314276
20.2154,0.0216652
20.2942,0.0202324
20.373,0.0255517
20.4518,0.0313331
20.5306,0.0229122
20.6093,0.0254374
20.6881,0.0136723
20.7669,0.0264778
20.8457,0.0275521
20.9245,0.019666
21.0032,0.0368162
21.082,0.0271822
21.1608,0.0192936
21.2396,0.0232486
21.3184,0.0256215
21.3972,0.0266938
21.4759,0.020222
21.5547,0.0240403
21.6335,0.0226608
21.7123,0.031755
21.7911,0.0224454
21.8698,0.0248382
21.9486,0.0270927
22.0274,0.0270004
22.1062,0.0291443
22.185,0.0148982
22.2638,0.0369924
22.3425,0.0493711
22.4213,0.0729133
22.5001,0.0972481
22.5789,0.170697
22.6577,0.326907
22.7364,0.646553
22.8152,0.613164
22.894,0.241861
22.9728,0.129511
23.0516,0.0930956
23.1304,0.0884955
23.2091,0.0716129
23.2879,0.0589519
23.3667,0.0514092
23.4455,0.041237
23.5243,0.0395571
23.603,0.0378312
23.6818,0.0360536
23.7606,0.0351863
23.8394,0.0312864
23.9182,0.0353801
23.997,0.0364409
24.0757,0.0326446
24.1545,0.0250332
24.2333,0.0286487
24.3121,0.0360117
24.3909,0.0278115
24.4696,0.0256169
24.5484,0.0345261
24.6272,0.0221469
24.706,0.0249001
24.7848,0.0286619
24.8636,0.0288499
24.9423,0.0241969
25.0211,0.0173067
25.0999,0.0219297
25.1787,0.0248029
25.2575,0.0223454
25.3362,0.0252252
25.415,0.0267075
25.4938,0.0185705
25.5726,0.0154608
25.6514,0.020551
25.7302,0.0222444
25.8089,0.016128
25.8877,0.0226915
25.9665,0.0182863
26.0453,0.0272144
26.1241,0.0203419
26.2028,0.0263188
26.2816,0.0302979
26.3604,0.0092807
26.4392,0.0210222
26.518,0.0211693
26.5967,0.0196945
26.6755,0.0214535
26.7543,0.0273706
26.8331,0.0183987
26.9119,0.0262772
26.9907,0.0219737
27.0694,0.0220834
27.1482,0.0221899
27.227,0.029383
27.3058,0.0239376
27.3846,0.0173485
27.4633,0.013362
27.5421,0.0226922
27.6209,0.0111842
27.6997,0.0157442
27.7785,0.024467
27.8573,0.0274219
27.936,0.017922
28.0148,0.0231444
28.0936,0.021594
28.1724,0.0199455
28.2512,0.0316883
28.3299,0.0200609
28.4087,0.0264564
28.4875,0.0163923
28.5663,0.0279759
28.6451,0.0164991
28.7239,0.0185065
28.8026,0.0237044
28.8814,0.0237482
28.9602,0.029569
29.039,0.0222138
29.1178,0.0282936
29.1965,0.0239124
29.2753,0.02062
29.3541,0.0255214
29.4329,0.0323646
29.5117,0.022416
29.5905,0.0207273
29.6692,0.0189263
29.748,0.0256364
29.8268,0.0207833
29.9056,0.0207949
29.9844,0.0241339
30.0631,0.0241428
30.1419,0.0225332
30.2207,0.0349351
30.2995,0.0404614
30.3783,0.0516433
30.4571,0.0883106
30.5358,0.111087
30.6146,0.0565329
30.6934,0.0313117
30.7722,0.0405287
30.851,0.0286722
30.9297,0.0300452
31.0085,0.0126923
31.0873,0.0171935
31.1661,0.0227038
31.2449,0.0227254
31.3237,0.01513
31.4024,0.0192411
31.4812,0.017311
31.56,0.0211195
31.6388,0.0328353
31.7176,0.0211848
31.7963,0.021221
31.8751,0.0212595
31.9539,0.00719639
32.0327,0.0262131
32.1115,0.0291408
32.1903,0.0277791
32.269,0.0278308
32.3478,0.0248751
32.4266,0.0249323
32.5054,0.0307707
32.5842,0.0250554
32.6629,0.0444368
32.7417,0.0454742
32.8205,0.0464968
32.8993,0.0925276
32.9781,0.171163
33.0568,0.190658
33.1356,0.122147
33.2144,0.0587583
33.2932,0.042043
33.372,0.0389059
33.4508,0.0330242
33.5295,0.0227029
33.6083,0.0261312
33.6871,0.0292423
33.7659,0.0192266
33.8447,0.0193318
33.9234,0.0336357
34.0022,0.0215053
34.081,0.0251489
34.1598,0.0313002
34.2386,0.0127289
34.3174,0.0128433
34.3961,0.0179852
34.4749,0.0240089
34.5537,0.0223034
34.6325,0.0183337
34.7113,0.0184477
34.79,0.0308048
34.8688,0.0207904
34.9476,0.0105578
35.0264,0.0209514
35.1052,0.022956
35.184,0.0311551
35.2627,0.0107418
35.3415,0.0230453
35.4203,0.0377924
35.4991,0.0166236
35.5779,0.00663289
35.6566,0.0229873
35.7354,0.0209305
35.8142,0.0227677
35.893,0.0244631
35.9718,0.0243329
36.0506,0.018291
36.1293,0.0273913
36.2081,0.0129881
36.2869,0.0315299
36.3657,0.0177267
36.4445,0.0252007
36.5232,0.0233463
36.602,0.0213827
36.6808,0.0263944
36.7596,0.0246387
36.8384,0.0291331
36.9172,0.0275315
36.9959,0.0207138
37.0747,0.0205912
37.1535,0.0300454
37.2323,0.0285217
37.3111,0.0298247
37.3898,0.0253018
37.4686,0.0322936
37.5474,0.0266551
37.6262,0.0380958
37.705,0.0461907
37.7838,0.051501
37.8625,0.0730706
37.9413,0.0824325
38.0201,0.10863
38.0989,0.172381
38.1777,0.227212
38.2564,0.365578
38.3352,0.522959
38.414,0.574672
38.4928,0.384556
38.5716,0.196473
38.6503,0.118036
38.7291,0.0976931
38.8079,0.0684176
38.8867,0.0546359
38.9655,0.039978
39.0443,0.0410786
39.123,0.0431708
39.2018,0.0319933
39.2806,0.0357486
39.3594,0.0369826
39.4382,0.0281387
39.5169,0.0200625
39.5957,0.0253042
39.6745,0.0182904
39.7533,0.0238798
39.8321,0.0286114
39.9109,0.0205562
39.9896,0.0165798
40.0684,0.0259292
40.1472,0.0208921
40.226,0.0319377
40.3048,0.019168
40.3835,0.0212434
40.4623,0.0265122
40.5411,0.0250055
40.6199,0.0196159
40.6987,0.0325927
40.7775,0.0252786
40.8562,0.0236446
40.935,0.0270373
41.0138,0.0199523
41.0926,0.0254058
41.1714,0.0176986
41.2501,0.0125599
41.3289,0.0324827
41.4077,0.026578
41.4865,0.0212918
41.5653,0.0262982
41.6441,0.0168832
41.7228,0.00430027
41.8016,0.0221851
41.8804,0.0295231
41.9592,0.0213381
42.038,0.0226055
42.1167,0.0166606
42.1955,0.0161938
42.2743,0.0286045
42.3531,0.0253559
42.4319,0.0262855
42.5107,0.0229232
42.5894,0.0253245
42.6682,0.0311989
42.747,0.0295284
42.8258,0.0265568
42.9046,0.0234142
42.9833,0.0256077
43.0621,0.0264029
43.1409,0.0246671
43.2197,0.0290471
43.2985,0.0133205
43.3773,0.0257734
43.456,0.0309762
43.5348,0.0336133
43.6136,0.0219281
43.6924,0.0188214
43.7712,0.0332827
43.8499,0.0266043
43.9287,0.0283624
44.0075,0.023486
44.0863,0.0138489
44.1651,0.0149275
44.2438,0.0159563
44.3226,0.0219393
44.4014,0.0123449
44.4802,0.0175471
44.559,0.0294415
44.6378,0.0193895
44.7165,0.0288183
44.7953,0.0211485
44.8741,0.0220057
44.9529,0.0270153
45.0317,0.0257707
45.1104,0.0331107
45.1892,0.03112
45.268,0.0344685
45.3468,0.0376354
45.4256,0.04654
45.5044,0.0544319
45.5831,0.0610201
45.6619,0.0724316
45.7407,0.0812362
45.8195,0.0949272
45.8983,0.106081
45.977,0.148716
46.0558,0.193324
46.1346,0.270649
46.2134,0.381261
46.2922,0.571415
46.371,0.799424
46.4497,0.988849
46.5285,0.887592
46.6073,0.544785
46.6861,0.300316
46.7649,0.204246
46.8436,0.147971
46.9224,0.117842
47.0012,0.0923442
47.08,0.0595749
47.1588,0.0686888
47.2376,0.0584885
47.3163,0.0550434
47.3951,0.0648109
47.4739,0.0518654
47.5527,0.0480196
47.6315,0.0406116
47.7102,0.0376461
47.789,0.0272431
47.8678,0.0288829
47.9466,0.0196909
48.0254,0.021613
48.1042,0.0294746
48.1829,0.0240862
48.2617,0.0142655
48.3405,0.016582
48.4193,0.0271681
48.4981,0.0209721
48.5768,0.0184389
48.6556,0.020686
48.7344,0.019699
48.8132,0.0249595
48.892,0.0192457
48.9708,0.0198572
49.0495,0.0237875
49.1283,0.0151456
49.2071,0.0198215
49.2859,0.022227
49.3647,0.0190139
49.4434,0.0195357
49.5222,0.0286491
49.601,0.0183017
49.6798,0.0208469
49.7586,0.0191298
49.8374,0.0216633
49.9161,0.0117246
49.9949,0.0243502
50.0737,0.0205596
50.1525,0.0184747
50.2313,0.0210893
50.31,0.0189868
50.3888,0.023712
50.4676,0.019462
50.5464,0.0342822
50.6252,0.0358916
50.7039,0.0283234
50.7827,0.0302086
50.8615,0.0303778
50.9403,0.0205686
51.0191,0.0230819
51.0979,0.0232297
51.1766,0.0233518
51.2554,0.0275302
51.3342,0.0153243
51.413,0.0153949
51.4918,0.025785
51.5705,0.0113884
51.6493,0.0296787
51.7281,0.0187894
51.8069,0.0156401
51.8857,0.025955
51.9645,0.0297047
52.0432,0.0345375
52.122,0.0258487
52.2008,0.0213182
52.2796,0.0358653
52.3584,0.0212037
52.4371,0.0211329
52.5159,0.0183614
52.5947,0.0232528
52.6735,0.00079572
52.7523,0.0205809
52.8311,0.0177479
52.9098,0.0226148
52.9886,0.0174301
53.0674,0.0
53.1462,0.026233
53.225,0.0169699
53.3037,0.0259352
53.3825,0.0193516
53.4613,0.0291856
53.5401,0.019078
53.6189,0.0131065
53.6977,0.0188249
53.7764,0.0286802
53.8552,0.0317264
53.934,0.0316215
54.0128,0.0483124
54.0916,0.0451346
54.1703,0.0597526
54.2491,0.0588639
54.3279,0.0734294
54.4067,0.10124
54.4855,0.122593
54.5643,0.165467
54.643,0.232489
54.7218,0.305496
54.8006,0.324466
54.8794,0.26923
54.9582,0.174102
55.0369,0.113839
55.1157,0.0765204
55.1945,0.066405
55.2733,0.0570855
55.3521,0.0392651
55.4309,0.0355323
55.5096,0.0450759
55.5884,0.0395095
55.6672,0.0284099
55.746,0.0301393
55.8248,0.0386146
55.9035,0.0252383
55.9823,0.0253772
56.0611,0.0235677
56.1399,0.0292143
56.2187,0.0135636
56.2974,0.0219327
56.3762,0.0261988
56.455,0.0263864
56.5338,0.0301139
56.6126,0.0144997
56.6914,0.0321408
56.7701,0.0252452
56.8489,0.0254638
56.9277,0.0256874
57.0065,0.0237872
57.0853,0.0189931
57.164,0.0242561
57.2428,0.0194693
57.3216,0.0223844
57.4004,0.0199576
57.4792,0.0202054
57.558,0.0204552
57.6367,0.0257332
57.7155,0.0209591
57.7943,0.0283677
57.8731,0.0141657
57.9519,0.0185503
58.0306,0.0329035
58.1094,0.0248793
58.1882,0.0224326
58.267,0.015349
58.3458,0.0228618
58.4246,0.0257417
58.5033,0.0201011
58.5821,0.0234551
58.6609,0.0236086
58.7397,0.0287622
58.8185,0.0310063
58.8972,0.0330743
58.976,0.0290938
59.0548,0.0268396
59.1336,0.021091
59.2124,0.0430282
59.2912,0.0270863
59.3699,0.0072031
59.4487,0.0336502
59.5275,0.00732265
59.6063,0.0318087
59.6851,0.0247085
59.7638,0.0215917
59.8426,0.0175118
59.9214,0.0320172
60.0002,0.0299375
60.079,0.0276316
60.1578,0.0300343
60.2365,0.00778172
60.3153,0.0342161
60.3941,0.0251505
60.4729,0.0220263
60.5517,0.0220708
60.6304,0.0221144
60.7092,0.0324824
60.788,0.0221987
60.8668,0.0280784
60.9456,0.0181381
61.0244,0.0181671
61.1031,0.0281661
61.1819,0.0381626
61.2607,0.0223678
61.3395,0.0182494
61.4183,0.0182473
61.497,0.0282049
61.5758,0.0182099
61.6546,0.0281582
61.7334,0.0304845
61.8122,0.0254274
61.8909,0.0280675
61.9697,0.0221899
62.0485,0.0303485
62.1273,0.0324386
62.2061,0.030272
62.2849,0.0179069
62.3636,0.027843
62.4424,0.0342469
62.5212,0.00782505
62.6,0.0218949
62.6788,0.0300583
62.7575,0.0300264
62.8363,0.0249694
62.9151,0.0176398
62.9939,0.0375589
63.0727,0.0275604
63.1515,0.0357989
63.2302,0.0391068
63.309,0.053252
63.3878,0.0498442
63.4666,0.0612233
63.5454,0.0521042
63.6241,0.0338782
63.7029,0.0297835
63.7817,0.039014
63.8605,0.0319009
63.9393,0.0247436
64.0181,0.0174428
64.0968,0.0274183
64.1756,0.0297772
64.2544,0.0319124
64.3332,0.0319213
64.412,0.0174763
64.4907,0.0339027
64.5695,0.0319604
64.6483,0.0319774
64.7271,0.0248412
64.8059,0.032017
64.8847,0.0339966
64.9634,0.00763408
65.0422,0.0217637
65.121,0.0276327
65.1998,0.0218187
65.2786,0.0177169
65.3573,0.0218783
65.4361,0.0177786
65.5149,0.0219417
65.5937,0.0301709
65.6725,0.0220078
65.7513,0.0278837
65.83,0.0252455
65.9088,0.0362141
65.9876,0.025314
66.0664,0.0325031
66.1452,0.0180791
66.2239,0.0304328
66.3027,0.0181236
66.3815,0.0222662
66.4603,0.0281154
66.5391,0.0254406
66.6179,0.0222411
66.6966,0.00806635
66.7754,0.034352
66.8542,0.0301539
66.933,0.00773699
67.0118,0.0175906
67.0905,0.0247646
67.1693,0.027294
67.2481,0.0212934
67.3269,0.0352332
67.4057,0.0168327
67.4845,0.0311235
67.5632,0.0264759
67.642,0.0163387
67.7208,0.0161757
67.7996,0.0283413
67.8784,0.0281809
67.9571,0.0280221
68.0359,0.0228384
68.1147,0.0253556
68.1935,0.0334646
68.2723,0.0250518
68.351,0.0249034
68.4298,0.0347306
68.5086,0.0219417
68.5874,0.0268276
68.6662,0.0307753
68.745,0.0324617
68.8237,0.0386687
68.9025,0.048592
68.9813,0.0575706
69.0601,0.0841452
69.1389,0.104341
69.2176,0.13693
69.2964,0.130319
69.3752,0.111144
69.454,0.0895257
69.5328,0.0594627
69.6116,0.0517967
69.6903,0.0310411
69.7691,0.0342667
69.8479,0.0399425
69.9267,0.0324447
70.0055,0.0196991
70.0842,0.0222721
70.163,0.0195009
70.2418,0.0265571
70.3206,0.0319464
70.3994,0.0283085
70.4782,0.0241137
70.5569,0.0158002
70.6357,0.0188407
70.7145,0.011403
70.7933,0.0153959
70.8721,0.0211006
70.9508,0.0151223
71.0296,0.0181576
71.1084,0.0380674
71.1872,0.0178954
71.266,0.0304141
71.3448,0.0267577
71.4235,0.0225523
71.5023,0.0245655
71.5811,0.0199718
71.6599,0.0410399
71.7387,0.0280271
71.8174,0.0454263
71.8962,0.0341821
71.975,0.0394433
72.0538,0.0512956
72.1326,0.0592419
72.2114,0.0797453
72.2901,0.102445
72.3689,0.130029
72.4477,0.152075
72.5265,0.153335
72.6053,0.142268
72.684,0.1079
72.7628,0.073056
72.8416,0.0652425
72.9204,0.045869
72.9992,0.0414137
73.078,0.0377452
73.1567,0.035104
73.2355,0.033727
73.3143,0.0191667
73.3931,0.0308072
73.4719,0.0352846
73.5506,0.0216906
73.6294,0.0238905
73.7082,0.0259265
73.787,0.0260122
73.8658,0.0312564
73.9445,0.0297375
74.0233,0.0358829
74.1021,0.0446381
74.1809,0.0556839
74.2597,0.073568
74.3385,0.0776631
74.4172,0.0797071
74.496,0.0759849
74.5748,0.0631183
74.6536,0.0466903
74.7324,0.0275302
74.8111,0.0212505
74.8899,0.021415
74.9687,0.0239375
75.0475,0.0300169
75.1263,0.0192575
75.2051,0.0244619
75.2838,0.0222879
75.3626,0.0224705
75.4414,0.022655
75.5202,0.0228412
75.599,0.0203565
75.6777,0.0173751
75.7565,0.020734
75.8353,0.0177523
75.9141,0.0282574
75.9929,0.0262912
76.0717,0.0285656
76.1504,0.0242219
76.2292,0.0143843
76.308,0.0268437
76.3868,0.0246155
76.4656,0.0220507
76.5443,0.00484937
76.6231,0.0271912
76.7019,0.0248638
76.7807,0.0331473
76.8595,0.0313407
76.9383,0.0222363
77.017,0.0222373
77.0958,0.0249031
77.1746,0.0190469
77.2534,0.019028
77.3322,0.0248494
77.4109,0.0248277
77.4897,0.0221324
77.5685,0.0247802
77.6473,0.018912
77.7261,0.024727
77.8049,0.0246994
77.8836,0.0291544
77.9624,0.0291265
78.0412,0.0187734
78.12,0.021915
78.1988,0.0187168
78.2775,0.0245304
78.3563,0.0245018
78.4351,0.0268273
78.5139,0.0186015
78.5927,0.026768
78.6715,0.0144099
78.7502,0.0243521
78.829,0.0266747
78.9078,0.028769
78.9866,0.0266029
79.0654,0.0242072
79.1441,0.0214902
79.2229,0.0241147
79.3017,0.0240647
79.3805,0.0213388
79.4593,0.0212757
79.538,0.0262263
79.6168,0.0282712
79.6956,0.0237033
79.7744,0.0259728
79.8532,0.0317966
79.932,0.0258059
80.0107,0.0278527
80.0895,0.00334324
80.1683,0.0232111
80.2471,0.0276175
80.3259,0.0275433
80.4046,0.0130157
80.4834,0.0293603
80.5622,0.0273372
80.641,0.0227919
80.7198,0.0127598
80.7986,0.0271606
80.8773,0.0199543
80.9561,0.0270625
81.0349,0.0289774
81.1137,0.0269822
81.1925,0.0424128
81.2712,0.0340302
81.35,0.0288562
81.4288,0.0323719
81.5076,0.0435612
81.5864,0.0423276
81.6652,0.0447474
81.7439,0.049219
81.8227,0.051311
81.9015,0.0736934
81.9803,0.080388
82.0591,0.111776
82.1378,0.111813
82.2166,0.10625
82.2954,0.0951421
82.3742,0.0665697
82.453,0.0634364
82.5318,0.0359172
82.6105,0.0428065
82.6893,0.0375418
82.7681,0.0203534
82.8469,0.0347087
82.9257,0.0276968
83.0044,0.0406861
83.0832,0.0365546
83.162,0.031798
83.2408,0.0281359
83.3196,0.0211023
83.3984,0.0321623
83.4771,0.0240298
83.5559,0.0214906
83.6347,0.0216269
83.7135,0.0185963
83.7923,0.014607
83.871,0.032986
83.9498,0.0293522
84.0286,0.0273704
84.1074,0.00521702
84.1862,0.0226375
84.265,0.015475
84.3437,0.027925
84.4225,0.0230093
84.5013,0.0199449
84.5801,0.0303683
84.6589,0.0283281
84.7376,0.0360226
84.8164,0.0161368
84.8952,0.0203148
84.974,0.00625012
85.0528,0.037825
85.1316,0.0204268
85.2103,0.016329
85.2891,0.0263331
85.3679,0.0263617
85.4467,0.0164151
85.5255,0.0164396
85.6042,0.023764
85.683,0.0288137
85.7618,0.0165089
85.8406,0.0265042
85.9194,0.0206838
85.9981,0.0310303
86.0769,0.00662198
86.1557,0.0265875
86.2345,0.00665855
86.3133,0.0289754
86.3921,0.0348985
86.4708,0.0266514
86.5496,0.0239936
86.6284,0.0331198
86.7072,0.0266914
86.786,0.0167276
86.8647,0.0267084
86.9435,0.0208728
87.0223,0.0290752
87.1011,0.0349881
87.1799,0.0067832
87.2587,0.0267304
87.3374,0.0367024
87.4162,0.0208852
87.495,0.026725
87.5738,0.0267219
87.6526,0.0240458
87.7313,0.02087
87.8101,0.0208614
87.8889,0.0290474
87.9677,0.029036
88.0465,0.0266697
88.1253,0.0266572
88.204,0.0266435
88.2828,0.0266267
88.3616,0.023933
88.4404,0.03302
88.5192,0.0165782
88.5979,0.00657288
88.6767,0.0206341
88.7555,0.00646887
88.8343,0.0236673
88.9131,0.0286127
88.9919,0.00622834
89.0706,0.0260884
89.1494,0.016026
89.2282,0.0259012
89.307,0.0199425
89.3858,0.0280035
89.4645,0.0255047
89.5433,0.0253573
89.6221,0.0225352
89.7009,0.0192134
89.7797,0.0149261
89.8585,0.0247357
89.9372,0.0145945
90.016,0.0326613
90.0948,0.0215591
90.1736,0.0356562
90.2524,0.0399117
90.3311,0.0411056
90.4099,0.0471002
90.4887,0.0445899
90.5675,0.0363908
90.6463,0.0204349
90.7251,0.0253123
90.8038,0.0228124
90.8826,0.0126978
90.9614,0.0225338
91.0402,0.0224013
91.119,0.0164314
91.1977,0.0245053
91.2765,0.0193615
91.3553,0.0301842
91.4341,0.0262992
91.5129,0.0281568
91.5916,0.0403028
91.6704,0.0297982
91.7492,0.0374682
91.828,0.0313553
91.9068,0.0459705
91.9856,0.0436222
92.0643,0.0458586
92.1431,0.0724349
92.2219,0.068816
92.3007,0.0909032
92.3795,0.109459
92.4582,0.113941
92.537,0.126857
92.6158,0.125266
92.6946,0.0978024
92.7734,0.0925303
92.8522,0.0757806
92.9309,0.0548864
93.0097,0.0585092
93.0885,0.0385798
93.1673,0.0295252
93.2461,0.0386933
93.3248,0.0237453
93.4036,0.0314384
93.4824,0.0346773
93.5612,0.0316071
93.64,0.0262108
93.7188,0.0364299
93.7975,0.0160922
93.8763,0.0351773
93.9551,0.0194915
94.0339,0.0246409
94.1127,0.0224144
94.1914,0.0225471
94.2702,0.0291244
94.349,0.0273086
94.4278,0.0229713
94.5066,0.0295608
94.5854,0.0174313
94.6641,0.0279124
94.7429,0.00364233
94.8217,0.00380416
94.9005,0.0239148
94.9793,0.021409
95.058,0.0142767
95.1368,0.0267745
95.2156,0.0187497
95.2944,0.0330269
95.3732,0.024939
95.452,0.0151407
95.5307,0.0335512
95.6095,0.0278193
95.6883,0.0229676
95.7671,0.023139
95.8459,0.0201346
95.9246,0.0202947
96.0034,0.0307763
96.0822,0.0164709
96.161,0.0265785
96.2398,0.016717
96.3186,0.0241137
96.3973,0.0313592
96.4761,0.0211217
96.5549,0.021206
96.6337,0.0171569
96.7125,0.0295613
96.7912,0.0272706
96.87,0.024644
96.9488,0.0215082
97.0276,0.0297346
97.1064,0.0274076
97.1851,0.0274318
97.2639,0.00750605
97.3427,0.00752362
97.4215,0.0216438
97.5003,0.0374748
97.5791,0.0298716
97.6578,0.0248606
97.7366,0.0217065
97.8154,0.0275644
97.8942,0.0275802
97.973,0.021754
98.0517,0.0249398
98.1305,0.0249559
98.2093,0.0218023
98.2881,0.0276609
98.3669,0.0276774
98.4457,0.027694
98.5244,0.0250385
98.6032,0.0177545
98.682,0.0360067
98.7608,0.0219197
98.8396,0.0178059
98.9183,0.0219543
98.9971,0.0251416
99.0759,0.0251591
99.1547,0.00790267
99.2335,0.030221
99.3123,0.0323671
99.391,0.0252296
99.4698,0.0179461
99.5486,0.00798953
99.6274,0.0252779
99.7062,0.022119
99.7849,0.0179958
99.8637,0.0180009
99.9425,0.0180038
100.021,0.0221361
100.1,0.0279762
100.179,0.0221235
100.258,0.0279436
100.336,0.0279132
100.415,0.0302328
100.494,0.0251673
100.573,0.0277966
100.652,0.0301045
100.73,0.00774925
100.809,0.0176485
100.888,0.0275239
100.967,0.0247372
101.045,0.0272857
101.124,0.0354156
101.203,0.0243422
101.282,0.0333099
101.361,0.020871
101.439,0.0238674
101.518,0.0308397
101.597,0.0203301
101.676,0.0324284
101.754,0.0158318
101.833,0.0355964
101.912,0.0254432
101.991,0.0252654
102.07,0.0151171
102.148,0.0222457
102.227,0.0363408
102.306,0.018742
102.385,0.0244231
102.464,0.0242665
102.542,0.0305547
102.621,0.0181254
102.7,0.0238258
102.779,0.0137164
102.857,0.0299993
102.936,0.0207625
103.015,0.0233166
103.094,0.0363358
103.173,0.0275827
103.251,0.0274844
103.33,0.0452766
103.409,0.0344178
103.488,0.0485059
103.566,0.047335
103.645,0.0625107
103.724,0.0572425
103.803,0.074488
103.882,0.0778271
103.96,0.0847407
104.039,0.0859176
104.118,0.0876709
104.197,0.0858932
104.276,0.0700923
104.354,0.0655336
104.433,0.0481749
104.512,0.0459659
104.591,0.0356001
104.669,0.0371071
104.748,0.0412281
104.827,0.024953
104.906,0.0342471
104.985,0.0250732
105.063,0.0292288
105.142,0.0328377
105.221,0.0293866
105.3,0.0253884
105.378,0.02761
105.457,0.0232256
105.536,0.0256834
105.615,0.020765
105.694,0.0235502
105.772,0.0319294
105.851,0.0237886
105.93,0.0180714
106.009,0.0263965
106.087,0.0241741
106.166,0.0143358
106.245,0.0045004
106.324,0.0310272
106.403,0.0188875
106.481,0.0248743
106.56,0.0191786
106.639,0.0275233
106.718,0.0253184
106.797,0.0278235
106.875,0.033883
106.954,0.0158003
107.033,0.028281
107.112,0.006134
107.19,0.0162611
107.269,0.0237161
107.348,0.0265423
107.427,0.0290498
107.506,0.0313296
107.584,0.0243204
107.663,0.0212888
107.742,0.0296174
107.821,0.0297458
107.899,0.0175438
107.978,0.0176669
108.057,0.0177868
108.136,0.00792458
108.215,0.0221242
108.293,0.0253761
108.372,0.0254526
108.451,0.0305537
108.53,0.0255994
108.608,0.022499
108.687,0.0184289
108.766,0.0226055
108.845,0.0226387
108.924,0.0185357
109.002,0.0401255
109.081,0.0258826
109.16,0.0227302
109.239,0.0186141
109.318,0.0259256
109.396,0.0186295
109.475,0.0330859
109.554,0.0186287
109.633,0.00865331
109.711,0.022754
109.79,0.0259188
109.869,0.0309384
109.948,0.0227332
110.027,0.0258939
110.105,0.0258847
110.184,0.0258757
110.263,0.0349793
110.342,0.0226884
110.42,0.0431238
110.499,0.028514
110.578,0.0349465
110.657,0.0284989
110.736,0.0308463
110.814,0.0308398
110.893,0.0284794
110.972,0.0226316
111.051,0.030823
111.13,0.028464
111.208,0.0308142
111.287,0.025784
111.366,0.0284531
111.445,0.0184774
111.523,0.0284484
111.602,0.0308011
111.681,0.0257732
111.76,0.0284447
111.839,0.008498
111.917,0.0367064
111.996,0.0226025
112.075,0.025773
112.154,0.0257739
112.232,0.0308016
112.311,0.0308029
112.39,0.0257776
112.469,0.0226092
112.548,0.0348925
112.626,0.0367143
112.705,0.0257785
112.784,0.0226046
112.863,0.0225928
112.941,0.0225696
113.02,0.018407
113.099,0.0347859
113.178,0.0256375
113.257,0.0282715
113.335,0.0282253
113.414,0.0254905
113.493,0.0181106
113.572,0.0279965
113.651,0.0302611
113.729,0.0251431
113.808,0.0218772
113.887,0.0217706
113.966,0.0216518
114.044,0.0173928
114.123,0.0336721
114.202,0.0294464
114.281,0.0269359
114.36,0.0290925
114.438,0.023815
114.517,0.0235318
114.596,0.0259126
114.675,0.0229494
114.753,0.0194906
114.832,0.025046
114.911,0.0147889
114.99,0.0186397
115.069,0.02656
115.147,0.00398781
115.226,0.033641
115.305,0.0175651
115.384,0.0295931
115.463,0.0311673
115.541,0.00271836
115.62,0.0247861
115.699,0.0353376
115.778,0.0335817
115.856,0.0300444
115.935,0.0215837
116.014,0.0359963
116.093,0.0372278
116.172,0.0293084
116.25,0.0324793
116.329,0.0394195
116.408,0.0337341
116.487,0.03649
116.565,0.0471955
116.644,0.0576064
116.723,0.0557526
116.802,0.0556741
116.881,0.0669815
116.959,0.0726311
117.038,0.0676248
117.117,0.0809765
117.196,0.081571
117.274,0.0868765
117.353,0.0868844
117.432,0.0752563
117.511,0.0719106
117.59,0.0615166
117.668,0.0528679
117.747,0.0510172
117.826,0.0425573
117.905,0.0302569
117.984,0.045043
118.062,0.0304768
118.141,0.0229847
118.22,0.0323597
118.299,0.0182442
118.377,0.0342063
118.456,0.032836
118.535,0.0237778
118.614,0.0260949
118.693,0.0282502
118.771,0.0120439
118.85,0.0195605
118.929,0.0248115
119.008,0.0250439
119.086,0.0202576
119.165,0.0173358
119.244,0.01346
119.323,0.0260499
119.402,0.0212925
119.48,0.0265947
119.559,0.0145484
119.638,0.03125
119.717,0.0315434
119.795,0.00545801
119.874,0.0301936
119.953,0.0260239
119.992,0.0261836