File: SIBC StrucMag/processed_XRD_spectra/Fu21Gd-SM1c_processed.csv
Angle,Intensity
5.01057,0.029663
5.08935,0.032884
5.16813,0.0359934
5.24691,0.04495
5.32569,0.0309282
5.40447,0.0413833
5.48326,0.0315647
5.56204,0.0453994
5.64082,0.0520925
5.7196,0.0305139
5.79838,0.0347898
5.87716,0.0379362
5.95595,0.0215692
6.03473,0.0286502
6.11351,0.0300232
6.19229,0.0313776
6.27107,0.035703
6.34985,0.0330226
6.42864,0.0353384
6.50742,0.0375976
6.5862,0.040736
6.66498,0.046402
6.74376,0.0303613
6.82254,0.0434916
6.90133,0.0371937
6.98011,0.0476411
7.05889,0.0435144
7.13767,0.0319132
7.21645,0.0559927
7.29523,0.0480199
7.37402,0.0339275
7.4528,0.0859914
7.53158,0.203037
7.61036,0.178797
7.68914,0.0689967
7.76792,0.056598
7.84671,0.045732
7.92549,0.0402724
8.00427,0.0296834
8.08305,0.0419034
8.16183,0.0291121
8.24061,0.0482395
8.3194,0.0377232
8.39818,0.0451284
8.47696,0.0444792
8.55574,0.0365077
8.63452,0.0400602
8.7133,0.0275583
8.79209,0.0316645
8.87087,0.0281929
8.94965,0.0369805
9.02843,0.0437122
9.10721,0.0376073
9.186,0.0412081
9.26478,0.0347513
9.34356,0.032617
9.42234,0.0303644
9.50112,0.0344517
9.5799,0.0416464
9.65869,0.0440801
9.73747,0.0411427
9.81625,0.04032
9.89503,0.0280507
9.97381,0.0420049
10.0526,0.0411666
10.1314,0.0457913
10.2102,0.039422
10.2889,0.0452803
10.3677,0.0350829
10.4465,0.0366117
10.5253,0.0393116
10.6041,0.0473914
10.6828,0.0278101
10.7616,0.0295463
10.8404,0.0437919
10.9192,0.0429011
10.998,0.0331217
11.0768,0.0333577
11.1555,0.0375657
11.2343,0.0390546
11.3131,0.0495475
11.3919,0.0369511
11.4707,0.0371745
11.5494,0.0360714
11.6282,0.0414056
11.707,0.0276959
11.7858,0.0393452
11.8646,0.0369409
11.9434,0.0397706
12.0221,0.0301408
12.1009,0.0375729
12.1797,0.0377806
12.2585,0.0430999
12.3373,0.0395138
12.416,0.04818
12.4948,0.0297521
12.5736,0.0387501
12.6524,0.0375704
12.7312,0.0363512
12.81,0.0288179
12.8887,0.0306507
12.9675,0.0308255
13.0463,0.0356116
13.1251,0.0372187
13.2039,0.0440229
13.2826,0.0314927
13.3614,0.046794
13.4402,0.0349529
13.519,0.0303337
13.5978,0.0435881
13.6766,0.0437542
13.7553,0.0291061
13.8341,0.0387105
13.9129,0.032821
13.9917,0.0329886
14.0705,0.0406119
14.1492,0.0393815
14.228,0.0423097
14.3068,0.032008
14.3856,0.0338332
14.4644,0.0386196
14.5432,0.0387905
14.6219,0.0506642
14.7007,0.0376476
14.7795,0.0421458
14.8583,0.0379929
14.9371,0.0279504
15.0158,0.0426659
15.0946,0.0830782
15.1734,0.0616014
15.2522,0.0417906
15.331,0.0307218
15.4097,0.0475179
15.4885,0.0310727
15.5673,0.0424921
15.6461,0.0397406
15.7249,0.0383782
15.8037,0.0298707
15.8824,0.0337443
15.9612,0.0321039
16.04,0.0340732
16.1188,0.0305249
16.1976,0.0408886
16.2763,0.0505965
16.3551,0.0426566
16.4339,0.0365222
16.5127,0.0349292
16.5915,0.0400306
16.6703,0.0333716
16.749,0.031589
16.8278,0.0336026
16.9066,0.0318173
16.9854,0.0406092
17.0642,0.0479444
17.1429,0.045297
17.2217,0.0393523
17.3005,0.0469196
17.3793,0.0441921
17.4581,0.0396881
17.5369,0.0381449
17.6156,0.034725
17.6944,0.0348371
17.7732,0.0310426
17.852,0.0433785
17.9308,0.0291295
18.0095,0.0313796
18.0883,0.0372051
18.1671,0.0355114
18.2459,0.0295794
18.3247,0.0375427
18.4035,0.0319421
18.4822,0.034062
18.561,0.0428518
18.6398,0.042961
18.7186,0.0414762
18.7974,0.036395
18.8761,0.0345981
18.9549,0.0384001
19.0337,0.050691
19.1125,0.0403125
19.1913,0.0260329
19.2701,0.0369608
19.3488,0.0422343
19.4276,0.0423172
19.5064,0.0333027
19.5852,0.0424739
19.664,0.0206226
19.7427,0.0392245
19.8215,0.0374471
19.9003,0.0374401
19.9791,0.0425951
20.0579,0.0237635
20.1367,0.0391219
20.2154,0.0289182
20.2942,0.0288551
20.373,0.0332204
20.4518,0.0405736
20.5306,0.038726
20.6093,0.0385647
20.6881,0.0365755
20.7669,0.0363864
20.8457,0.0278542
20.9245,0.0378103
21.0032,0.0425932
21.082,0.0408112
21.1608,0.0293919
21.2396,0.018515
21.3184,0.0311627
21.3972,0.0416703
21.4759,0.0328155
21.5547,0.0345429
21.6335,0.0411559
21.7123,0.040994
21.7911,0.0375895
21.8698,0.0479102
21.9486,0.0298563
22.0274,0.0419429
22.1062,0.0501171
22.185,0.0536978
22.2638,0.0634792
22.3425,0.0653811
22.4213,0.0980711
22.5001,0.143526
22.5789,0.239958
22.6577,0.55643
22.7364,0.795121
22.8152,0.392903
22.894,0.193927
22.9728,0.129079
23.0516,0.114402
23.1304,0.100953
23.2091,0.0832112
23.2879,0.084779
23.3667,0.0741872
23.4455,0.055396
23.5243,0.0506654
23.603,0.0468479
23.6818,0.0441614
23.7606,0.0456438
23.8394,0.0546008
23.9182,0.0444437
23.997,0.048643
24.0757,0.0487679
24.1545,0.0514569
24.2333,0.0477215
24.3121,0.0406517
24.3909,0.0493621
24.4696,0.0425215
24.5484,0.0379157
24.6272,0.0363768
24.706,0.041545
24.7848,0.0432834
24.8636,0.0403623
24.9423,0.0353897
25.0211,0.0374167
25.0999,0.0274957
25.1787,0.0443854
25.2575,0.036305
25.3362,0.0518742
25.415,0.0385971
25.4938,0.0405716
25.5726,0.0264528
25.6514,0.0336397
25.7302,0.0396097
25.8089,0.04638
25.8877,0.0364255
25.9665,0.0325437
26.0453,0.0349461
26.1241,0.0186621
26.2028,0.0374853
26.2816,0.033603
26.3604,0.0379987
26.4392,0.04531
26.518,0.0342803
26.5967,0.0472966
26.6755,0.0505083
26.7543,0.0444231
26.8331,0.0302359
26.9119,0.043058
26.9907,0.0278111
27.0694,0.0376457
27.1482,0.0356358
27.227,0.0436103
27.3058,0.0283241
27.3846,0.0455759
27.4633,0.0217001
27.5421,0.0440576
27.6209,0.0576495
27.6997,0.040474
27.7785,0.0363737
27.8573,0.0424606
27.936,0.0406011
28.0148,0.0425363
28.0936,0.0317242
28.1724,0.036526
28.2512,0.0386534
28.3299,0.0386348
28.4087,0.0341787
28.4875,0.0385881
28.5663,0.0459982
28.6451,0.038528
28.7239,0.0315635
28.8026,0.0340286
28.8814,0.0287363
28.9602,0.0404066
29.039,0.0474615
29.1178,0.00523765
29.1965,0.0422133
29.2753,0.0361395
29.3541,0.0338144
29.4329,0.0312895
29.5117,0.0456341
29.5905,0.0381702
29.6692,0.0420533
29.748,0.0336898
29.8268,0.033669
29.9056,0.0517943
29.9844,0.0311348
30.0631,0.038051
30.1419,0.0380371
30.2207,0.0380251
30.2995,0.0598045
30.3783,0.104892
30.4571,0.132559
30.5358,0.0798299
30.6146,0.0486836
30.6934,0.0454368
30.7722,0.0486884
30.851,0.0400155
30.9297,0.0400242
31.0085,0.0335933
31.0873,0.0252117
31.1661,0.0400663
31.2449,0.0336436
31.3237,0.0311684
31.4024,0.0359878
31.4812,0.0337192
31.56,0.0420914
31.6388,0.0421254
31.7176,0.0285612
31.7963,0.016899
31.8751,0.0314068
31.9539,0.0339505
32.0327,0.0315021
32.1115,0.0404941
32.1903,0.0257116
32.269,0.0341657
32.3478,0.0493486
32.4266,0.0407341
32.5054,0.0494809
32.5842,0.0388647
32.6629,0.0594659
32.7417,0.0608044
32.8205,0.0721935
32.8993,0.155482
32.9781,0.217129
33.0568,0.176236
33.1356,0.101412
33.2144,0.0649467
33.2932,0.0487245
33.372,0.0471678
33.4508,0.0437368
33.5295,0.0399333
33.6083,0.0272089
33.6871,0.0492409
33.7659,0.0402567
33.8447,0.038231
33.9234,0.0335505
34.0022,0.0512849
34.081,0.0362809
34.1598,0.0194374
34.2386,0.0244048
34.3174,0.0341438
34.3961,0.0367639
34.4749,0.0368874
34.5537,0.0414462
34.6325,0.0371368
34.7113,0.0416967
34.79,0.0348905
34.8688,0.0322533
34.9476,0.037636
35.0264,0.0352569
35.1052,0.0326054
35.184,0.0326908
35.2627,0.0379771
35.3415,0.0354328
35.4203,0.0353368
35.4991,0.0377203
35.5779,0.032339
35.6566,0.0374701
35.7354,0.0320737
35.8142,0.0455317
35.893,0.0370385
35.9718,0.036879
36.0506,0.0390136
36.1293,0.0365552
36.2081,0.033897
36.2869,0.0309752
36.3657,0.0276824
36.4445,0.0306632
36.5232,0.0357712
36.602,0.0272269
36.6808,0.0302174
36.7596,0.0300764
36.8384,0.0396343
36.9172,0.0452155
36.9959,0.0296815
37.0747,0.0466937
37.1535,0.0448528
37.2323,0.0447439
37.3111,0.0389285
37.3898,0.0366953
37.4686,0.0509683
37.5474,0.0538144
37.6262,0.0523005
37.705,0.0476192
37.7838,0.0725933
37.8625,0.0838212
37.9413,0.106624
38.0201,0.155566
38.0989,0.214889
38.1777,0.311265
38.2564,0.497397
38.3352,0.607394
38.414,0.425855
38.4928,0.241041
38.5716,0.151441
38.6503,0.103926
38.7291,0.0944927
38.8079,0.0662369
38.8867,0.0685169
38.9655,0.0604637
39.0443,0.0524697
39.123,0.0445666
39.2018,0.0389558
39.2806,0.0369281
39.3594,0.0347493
39.4382,0.0432157
39.5169,0.0266112
39.5957,0.0298859
39.6745,0.0397259
39.7533,0.023328
39.8321,0.0457476
39.9109,0.0476357
39.9896,0.0382261
40.0684,0.0361006
40.1472,0.0427175
40.226,0.0280574
40.3048,0.0245182
40.3835,0.0343175
40.4623,0.0345004
40.5411,0.0371808
40.6199,0.0373593
40.6987,0.0398101
40.7775,0.0254794
40.8562,0.0375696
40.935,0.0458096
41.0138,0.0348413
41.0926,0.0288012
41.1714,0.0370396
41.2501,0.0391575
41.3289,0.0430877
41.4077,0.033882
41.4865,0.0495969
41.5653,0.0380306
41.6441,0.0418345
41.7228,0.0266503
41.8016,0.0391195
41.8804,0.0387217
41.9592,0.0254443
42.038,0.035655
42.1167,0.0412053
42.1955,0.0407051
42.2743,0.0362904
42.3531,0.0432138
42.4319,0.0443495
42.5107,0.0367429
42.5894,0.0433095
42.6682,0.0474067
42.747,0.0468895
42.8258,0.0448878
42.9046,0.0473017
42.9833,0.0316408
43.0621,0.0418205
43.1409,0.0363431
43.2197,0.0493659
43.2985,0.0461855
43.3773,0.0442971
43.456,0.0563702
43.5348,0.0487124
43.6136,0.0469492
43.6924,0.0409608
43.7712,0.0405055
43.8499,0.0481383
43.9287,0.0350058
44.0075,0.042034
44.0863,0.0416176
44.1651,0.0368869
44.2438,0.0394211
44.3226,0.0515984
44.4014,0.0342113
44.4802,0.0338595
44.559,0.036546
44.6378,0.0535121
44.7165,0.0261177
44.7953,0.0411591
44.8741,0.0338788
44.9529,0.047976
45.0317,0.0465865
45.1104,0.0427529
45.1892,0.0538724
45.268,0.0436279
45.3468,0.0604396
45.4256,0.0683104
45.5044,0.061145
45.5831,0.0655567
45.6619,0.0791453
45.7407,0.0973708
45.8195,0.102221
45.8983,0.140461
45.977,0.18597
46.0558,0.231733
46.1346,0.32737
46.2134,0.464681
46.2922,0.699192
46.371,0.960126
46.4497,0.912466
46.5285,0.605962
46.6073,0.352967
46.6861,0.227557
46.7649,0.181889
46.8436,0.140893
46.9224,0.124012
47.0012,0.0919534
47.08,0.0930177
47.1588,0.0759425
47.2376,0.0755749
47.3163,0.0784361
47.3951,0.0842752
47.4739,0.0711342
47.5527,0.0528237
47.6315,0.0405013
47.7102,0.0491366
47.789,0.0458293
47.8678,0.0477419
47.9466,0.0348217
48.0254,0.0354367
48.1042,0.0455014
48.1829,0.0288511
48.2617,0.0336445
48.3405,0.0361999
48.4193,0.0308192
48.4981,0.0410655
48.5768,0.0400142
48.6556,0.0388856
48.7344,0.0463436
48.8132,0.019774
48.892,0.0241298
48.9708,0.0306347
49.0495,0.0337261
49.1283,0.0461861
49.2071,0.0393247
49.2859,0.0329595
49.3647,0.042457
49.4434,0.0388529
49.5222,0.0370484
49.601,0.0322017
49.6798,0.0256967
49.7586,0.0381358
49.8374,0.0428834
49.9161,0.0387502
49.9949,0.0365446
50.0737,0.0416217
50.1525,0.0343256
50.2313,0.0421077
50.31,0.0400074
50.3888,0.0280768
50.4676,0.0351115
50.5464,0.0428428
50.6252,0.0508628
50.7039,0.0492167
50.7827,0.0433135
50.8615,0.0411359
50.9403,0.0328453
51.0191,0.0360815
51.0979,0.045874
51.1766,0.0362746
51.2554,0.0391296
51.3342,0.0296001
51.413,0.0462222
51.4918,0.0248653
51.5705,0.0334319
51.6493,0.0417986
51.7281,0.0296417
51.8069,0.024749
51.8857,0.0460975
51.9645,0.0517554
52.0432,0.0362818
52.122,0.0362058
52.2008,0.0361237
52.2796,0.0291832
52.3584,0.0387107
52.4371,0.0327087
52.5159,0.0384804
52.5947,0.0324385
52.6735,0.0381878
52.7523,0.0284216
52.8311,0.042687
52.9098,0.0377477
52.9886,0.027989
53.0674,0.0315698
53.1462,0.0373334
53.225,0.0110354
53.3037,0.0440078
53.3825,0.051325
53.4613,0.0368382
53.5401,0.0415222
53.6189,0.0557796
53.6977,0.022062
53.7764,0.0453763
53.8552,0.0569957
53.934,0.0489236
54.0128,0.0610535
54.0916,0.0537718
54.1703,0.0648244
54.2491,0.0781301
54.3279,0.0892314
54.4067,0.123298
54.4855,0.144276
54.5643,0.198517
54.643,0.280757
54.7218,0.328612
54.8006,0.292186
54.8794,0.20184
54.9582,0.144913
55.0369,0.109996
55.1157,0.0877028
55.1945,0.0698255
55.2733,0.069912
55.3521,0.0571474
55.4309,0.0542302
55.5096,0.0436589
55.5884,0.0494968
55.6672,0.04178
55.746,0.0440606
55.8248,0.0228154
55.9035,0.0315419
55.9823,0.0445398
56.0611,0.040281
56.1399,0.040464
56.2187,0.0470962
56.2974,0.0452851
56.3762,0.0433504
56.455,0.0387651
56.5338,0.036217
56.6126,0.039199
56.6914,0.0366606
56.7701,0.0396515
56.8489,0.0371211
56.9277,0.0139521
57.0065,0.0403575
57.0853,0.0495379
57.164,0.0408405
57.2428,0.0351864
57.3216,0.0438268
57.4004,0.0388082
57.4792,0.0321797
57.558,0.0361013
57.6367,0.0491169
57.7155,0.0396013
57.7943,0.0425371
57.8731,0.0451999
57.9519,0.0369589
58.0306,0.0499327
58.1094,0.0403755
58.1882,0.0502048
58.267,0.0406437
58.3458,0.0339195
58.4246,0.0340473
58.5033,0.0437898
58.5821,0.0380152
58.6609,0.0440364
58.7397,0.0345415
58.8185,0.0346637
58.8972,0.0552417
58.976,0.0386265
59.0548,0.0471436
59.1336,0.0303024
59.2124,0.0304231
59.2912,0.0353907
59.3699,0.0423652
59.4487,0.0393475
59.5275,0.0357444
59.6063,0.0310124
59.6851,0.0359729
59.7638,0.0504931
59.8426,0.0196345
59.9214,0.040002
60.0002,0.0459956
60.079,0.0316219
60.1578,0.0317087
60.2365,0.0317918
60.3153,0.0318665
60.3941,0.04049
60.4729,0.040528
60.5517,0.0319898
60.6304,0.0464794
60.7092,0.0437379
60.788,0.040618
60.8668,0.0465252
60.9456,0.0513233
61.0244,0.0406325
61.1031,0.0406337
61.1819,0.0320684
61.2607,0.043772
61.3395,0.0406379
61.4183,0.0437753
61.497,0.0369222
61.5758,0.0369245
61.6546,0.0406466
61.7334,0.0490453
61.8122,0.0406531
61.8909,0.0437927
61.9697,0.0369421
62.0485,0.0203975
62.1273,0.0406719
62.2061,0.0369586
62.2849,0.0438203
62.3636,0.040692
62.4424,0.0406999
62.5212,0.036989
62.6,0.0407177
62.6788,0.0370081
62.7575,0.0466362
62.8363,0.0466474
62.9151,0.0370417
62.9939,0.0466717
63.0727,0.0536167
63.1515,0.0466985
63.2302,0.0673547
63.309,0.0593725
63.3878,0.0729099
63.4666,0.0702401
63.5454,0.0576136
63.6241,0.0515857
63.7029,0.0409103
63.7817,0.0206586
63.8605,0.0323782
63.9393,0.0468605
64.0181,0.04098
64.0968,0.0409973
64.1756,0.0517061
64.2544,0.046927
64.3332,0.0324759
64.412,0.0207844
64.4907,0.0373399
64.5695,0.0517549
64.6483,0.0410643
64.7271,0.0494597
64.8059,0.0494572
64.8847,0.0207876
64.9634,0.0373267
65.0422,0.0373086
65.121,0.037285
65.1998,0.0493743
65.2786,0.051644
65.3573,0.0323562
65.4361,0.0371719
65.5149,0.0322888
65.5937,0.0322483
65.6725,0.0370524
65.7513,0.0438634
65.83,0.0438188
65.9088,0.0465357
65.9876,0.0320242
66.0664,0.043678
66.1452,0.0533223
66.2239,0.0435765
66.3027,0.0435243
66.3815,0.0317688
66.4603,0.0365594
66.5391,0.0402161
66.6179,0.0315805
66.6966,0.0459717
66.7754,0.0314262
66.8542,0.0196206
66.933,0.0360256
67.0118,0.0309941
67.0905,0.0424922
67.1693,0.018879
67.2481,0.0473345
67.3269,0.0350106
67.4057,0.0348024
67.4845,0.0442127
67.5632,0.0178395
67.642,0.0341838
67.7208,0.0435975
67.7996,0.0503272
67.8784,0.0404322
67.9571,0.0333785
68.0359,0.0166323
68.1147,0.0426048
68.1935,0.0327951
68.2723,0.0394603
68.351,0.039273
68.4298,0.0322334
68.5086,0.0525078
68.5874,0.0318725
68.6662,0.0539589
68.745,0.0459351
68.8237,0.0434684
68.9025,0.0516427
68.9813,0.0796286
69.0601,0.108659
69.1389,0.131178
69.2176,0.140581
69.2964,0.14097
69.3752,0.124102
69.454,0.0979456
69.5328,0.0753412
69.6116,0.0570669
69.6903,0.0553398
69.7691,0.0481223
69.8479,0.029437
69.9267,0.0414271
70.0055,0.0360451
70.0842,0.0359261
70.163,0.0475123
70.2418,0.0239945
70.3206,0.0408464
70.3994,0.0237764
70.4782,0.0429303
70.5569,0.0449656
70.6357,0.0427281
70.7145,0.0282192
70.7933,0.0521128
70.8721,0.044582
70.9508,0.0279431
71.0296,0.0347114
71.1084,0.03739
71.1872,0.0228442
71.266,0.0397286
71.3448,0.0343934
71.4235,0.0311856
71.5023,0.0370146
71.5811,0.0394463
71.6599,0.0495314
71.7387,0.0559832
71.8174,0.0494175
71.8962,0.0493663
71.975,0.0628414
72.0538,0.0786998
72.1326,0.0862655
72.2114,0.102536
72.2901,0.127386
72.3689,0.150278
72.4477,0.169058
72.5265,0.170761
72.6053,0.139025
72.684,0.097084
72.7628,0.0764992
72.8416,0.0733292
72.9204,0.0556486
72.9992,0.0525404
73.078,0.0413361
73.1567,0.0474144
73.2355,0.0455553
73.3143,0.0456016
73.3931,0.0456542
73.4719,0.0340109
73.5506,0.0368387
73.6294,0.0495552
73.7082,0.0369882
73.787,0.0343097
73.8658,0.0344
73.9445,0.0499038
74.0233,0.0482
74.1021,0.060951
74.1809,0.0755125
74.2597,0.0873756
74.3385,0.0847423
74.4172,0.0885293
74.496,0.0904296
74.5748,0.0728763
74.6536,0.0632246
74.7324,0.0357709
74.8111,0.0434829
74.8899,0.0496871
74.9687,0.0362496
75.0475,0.0518247
75.1263,0.0418487
75.2051,0.0299084
75.2838,0.0338059
75.3626,0.039885
75.4414,0.0373063
75.5202,0.0427525
75.599,0.0404435
75.6777,0.0310163
75.7565,0.0408259
75.8353,0.0314018
75.9141,0.0501534
75.9929,0.0414087
76.0717,0.0357058
76.1504,0.0390323
76.2292,0.0360713
76.308,0.0276514
76.3868,0.0422367
76.4656,0.0327252
76.5443,0.0424443
76.6231,0.0329268
76.7019,0.0398805
76.7807,0.036842
76.8595,0.0332147
76.9383,0.0284504
77.017,0.0499221
77.0958,0.043062
77.1746,0.0431324
77.2534,0.0479957
77.3322,0.0457669
77.4109,0.0433366
77.4897,0.0434015
77.5685,0.033844
77.6473,0.0543543
77.7261,0.0376671
77.8049,0.0339944
77.8836,0.0408938
77.9624,0.029234
78.0412,0.0341217
78.12,0.0341568
78.1988,0.0341806
78.2775,0.0438101
78.3563,0.0341966
78.4351,0.0176461
78.5139,0.0438076
78.5927,0.0485925
78.6715,0.0378829
78.7502,0.0175764
78.829,0.0409159
78.9078,0.0339778
78.9866,0.0376076
79.0654,0.0406497
79.1441,0.0405516
79.2229,0.0432107
79.3017,0.0371956
79.3805,0.0370527
79.4593,0.0400231
79.538,0.028148
79.6168,0.0328221
79.6956,0.0447649
79.7744,0.0159295
79.8532,0.0467215
79.932,0.0389978
80.0107,0.0440934
80.0895,0.0462287
80.1683,0.0353782
80.2471,0.0315044
80.3259,0.0409716
80.4046,0.0456197
80.4834,0.0406841
80.5622,0.0346495
80.641,0.0429139
80.7198,0.0402905
80.7986,0.0401704
80.8773,0.0372937
80.9561,0.0447425
81.0349,0.0423441
81.1137,0.0541223
81.1925,0.050502
81.2712,0.0395818
81.35,0.0503462
81.4288,0.050279
81.5076,0.041878
81.5864,0.0536987
81.6652,0.0599249
81.7439,0.0782338
81.8227,0.0792466
81.9015,0.10591
81.9803,0.109511
82.0591,0.118325
82.1378,0.131193
82.2166,0.11022
82.2954,0.0861103
82.3742,0.0832665
82.453,0.0584064
82.5318,0.0680101
82.6105,0.0501726
82.6893,0.0463179
82.7681,0.0419425
82.8469,0.0484504
82.9257,0.0443771
83.0044,0.036899
83.0832,0.0422437
83.162,0.0370742
83.2408,0.0468649
83.3196,0.0448289
83.3984,0.0401415
83.4771,0.0343552
83.5559,0.0376072
83.6347,0.0513293
83.7135,0.0347173
83.7923,0.0262795
83.871,0.038114
83.9498,0.0265473
84.0286,0.0383881
84.1074,0.0412917
84.1862,0.0318177
84.265,0.0440783
84.3437,0.0358299
84.4225,0.0443743
84.5013,0.0420264
84.5801,0.0469712
84.6589,0.0364294
84.7376,0.0397118
84.8164,0.0451099
84.8952,0.036844
84.974,0.0428679
85.0528,0.0477841
85.1316,0.0403442
85.2103,0.0404557
85.2891,0.0433221
85.3679,0.0337977
85.4467,0.0407357
85.5255,0.0435766
85.6042,0.0484474
85.683,0.0409652
85.7618,0.0546392
85.8406,0.0294063
85.9194,0.0343192
85.9981,0.0412323
86.0769,0.0295824
86.1557,0.0488915
86.2345,0.0296813
86.3133,0.0489873
86.3921,0.0442383
86.4708,0.0346638
86.5496,0.0298533
86.6284,0.0298801
86.7072,0.0443645
86.786,0.0347639
86.8647,0.0533365
86.9435,0.0182432
87.0223,0.0385241
87.1011,0.0513634
87.1799,0.0182661
87.2587,0.0348063
87.3374,0.0385088
87.4162,0.0347696
87.495,0.0384677
87.5738,0.0384437
87.6526,0.0468126
87.7313,0.0415243
87.8101,0.0442569
87.8889,0.0383236
87.9677,0.0297136
88.0465,0.0345105
88.1253,0.0179077
88.204,0.0548585
88.2828,0.0464595
88.3616,0.0486951
88.4404,0.0463351
88.5192,0.0341543
88.5979,0.0506311
88.6767,0.0339959
88.7555,0.0435149
88.8343,0.0434093
88.9131,0.0374016
88.9919,0.0540253
89.0706,0.0334526
89.1494,0.0370511
89.2282,0.0400541
89.307,0.0367705
89.3858,0.0366131
89.4645,0.0395878
89.5433,0.0446836
89.6221,0.0420175
89.7009,0.0390834
89.7797,0.050613
89.8585,0.0387376
89.9372,0.0385639
90.016,0.0411527
90.0948,0.0313617
90.1736,0.0408065
90.2524,0.0612769
90.3311,0.0429623
90.4099,0.0492361
90.4887,0.047062
90.5675,0.0399662
90.6463,0.0445994
90.7251,0.0421449
90.8038,0.0442872
90.8826,0.0393425
90.9614,0.0295787
91.0402,0.0362919
91.119,0.0330193
91.1977,0.0477254
91.2765,0.0386594
91.3553,0.0493776
91.4341,0.0432187
91.5129,0.0589584
91.5916,0.0430093
91.6704,0.0429148
91.7492,0.0586752
91.828,0.055572
91.9068,0.0690429
91.9856,0.0639833
92.0643,0.0701038
92.1431,0.086475
92.2219,0.0864347
92.3007,0.098258
92.3795,0.124906
92.4582,0.13909
92.537,0.141211
92.6158,0.126087
92.6946,0.117408
92.7734,0.0881963
92.8522,0.0711576
92.9309,0.0688532
93.0097,0.0568918
93.0885,0.0425838
93.1673,0.0613327
93.2461,0.0468607
93.3248,0.0469385
93.4036,0.0489231
93.4824,0.0406751
93.5612,0.0452101
93.64,0.0431803
93.7188,0.0357385
93.7975,0.0455546
93.8763,0.0359884
93.9551,0.041383
94.0339,0.0438203
94.1127,0.0364099
94.1914,0.0365618
94.2702,0.0367188
94.349,0.0337452
94.4278,0.0301923
94.5066,0.0424783
94.5854,0.0373932
94.6641,0.0403343
94.7429,0.0260516
94.8217,0.0454958
94.9005,0.0433869
94.9793,0.0458739
95.058,0.0353739
95.1368,0.0318486
95.2156,0.0388991
95.2944,0.0359601
95.3732,0.0275905
95.452,0.0470453
95.5307,0.036543
95.6095,0.0367247
95.6883,0.0400375
95.7671,0.0370772
95.8459,0.0431488
95.9246,0.0405573
96.0034,0.0407209
96.0822,0.017468
96.161,0.0437776
96.2398,0.0294517
96.3186,0.0381558
96.3973,0.0382912
96.4761,0.038419
96.5549,0.0385308
96.6337,0.0349059
96.7125,0.0349909
96.7912,0.0471875
96.87,0.0420061
96.9488,0.0517765
97.0276,0.0304531
97.1064,0.0188183
97.1851,0.0422826
97.2639,0.035483
97.3427,0.0392556
97.4215,0.0307393
97.5003,0.0477472
97.5791,0.035672
97.6578,0.0425624
97.7366,0.0394603
97.8154,0.039493
97.8942,0.0502171
97.973,0.042691
98.0517,0.0479806
98.1305,0.0427496
98.2093,0.0359235
98.2881,0.0359523
98.3669,0.0311336
98.4457,0.0360093
98.5244,0.0360375
98.6032,0.031218
98.682,0.0398114
98.7608,0.0361175
98.8396,0.0482569
98.9183,0.0457826
98.9971,0.0483025
99.0759,0.0362089
99.1547,0.0458454
99.2335,0.0430962
99.3123,0.0431028
99.391,0.0196989
99.4698,0.0399635
99.5486,0.0458537
99.6274,0.0313776
99.7062,0.0196562
99.7849,0.045792
99.8637,0.031288
99.9425,0.039812
100.021,0.0429014
100.1,0.0456129
100.179,0.0310903
100.258,0.0358681
100.336,0.045401
100.415,0.0356873
100.494,0.0393057
100.573,0.0306364
100.652,0.0390987
100.73,0.0187225
100.809,0.0351604
100.888,0.0350449
100.967,0.0300798
101.045,0.0416629
101.124,0.0384053
101.203,0.0441762
101.282,0.034427
101.361,0.0411481
101.439,0.0437729
101.518,0.0377264
101.597,0.037563
101.676,0.0171207
101.754,0.0403495
101.833,0.0537755
101.912,0.0331454
101.991,0.0425904
102.07,0.0424199
102.148,0.0447506
102.227,0.0324717
102.306,0.0391661
102.385,0.0358724
102.464,0.0416163
102.542,0.0414663
102.621,0.0461151
102.7,0.0315628
102.779,0.0351468
102.857,0.0312975
102.936,0.0348927
103.015,0.0310552
103.094,0.0430585
103.173,0.0376932
103.251,0.0492969
103.33,0.0562917
103.409,0.0528262
103.488,0.0649462
103.566,0.0674942
103.645,0.0746126
103.724,0.0647608
103.803,0.0895449
103.882,0.101239
103.96,0.099631
104.039,0.111523
104.118,0.109389
104.197,0.0987896
104.276,0.0797963
104.354,0.0766276
104.433,0.0903646
104.512,0.0574405
104.591,0.0525015
104.669,0.0559253
104.748,0.0525947
104.827,0.0489477
104.906,0.0425712
104.985,0.0373843
105.063,0.0450214
105.142,0.0428122
105.221,0.040409
105.3,0.0377474
105.378,0.0431149
105.457,0.0348329
105.536,0.026386
105.615,0.0457704
105.694,0.0383447
105.772,0.0267787
105.851,0.0386223
105.93,0.0270661
106.009,0.0506212
106.087,0.0359382
106.166,0.0444927
106.245,0.0393952
106.324,0.0161568
106.403,0.0365948
106.481,0.0474593
106.56,0.0428397
106.639,0.028552
106.718,0.0540346
106.797,0.0337587
106.875,0.0407962
106.954,0.0175751
107.033,0.0380289
107.112,0.0489067
107.19,0.0383994
107.269,0.0492739
107.348,0.0350397
107.427,0.0352142
107.506,0.0391058
107.584,0.0392744
107.663,0.0394389
107.742,0.0358796
107.821,0.0194835
107.899,0.019628
107.978,0.0507266
108.057,0.0485644
108.136,0.0462002
108.215,0.0404335
108.293,0.0436983
108.372,0.043826
108.451,0.0205469
108.53,0.040934
108.608,0.0469388
108.687,0.0411374
108.766,0.0412278
108.845,0.0472118
108.924,0.0376759
109.002,0.032907
109.081,0.0378251
109.16,0.0447349
109.239,0.0379182
109.318,0.0379484
109.396,0.0416947
109.475,0.0417184
109.554,0.0448745
109.633,0.0380344
109.711,0.0380386
109.79,0.0214827
109.869,0.0380204
109.948,0.0417261
110.027,0.0379906
110.105,0.0331244
110.184,0.0416691
110.263,0.0379247
110.342,0.0378979
110.42,0.0499855
110.499,0.0329958
110.578,0.0212662
110.657,0.0446434
110.736,0.0329142
110.814,0.0211851
110.893,0.037708
110.972,0.0328345
111.051,0.0211062
111.13,0.0472475
111.208,0.0327574
111.287,0.0375796
111.366,0.0412744
111.445,0.0443857
111.523,0.0471243
111.602,0.0412027
111.681,0.0470777
111.76,0.0495524
111.839,0.0442699
111.917,0.0325456
111.996,0.0208216
112.075,0.0373495
112.154,0.0494433
112.232,0.0441622
112.311,0.0469038
112.39,0.0324183
112.469,0.0323976
112.548,0.0440789
112.626,0.020653
112.705,0.0467973
112.784,0.0492676
112.863,0.0205653
112.941,0.0514757
113.02,0.0204522
113.099,0.0369301
113.178,0.0405709
113.257,0.0463835
113.335,0.0201123
113.414,0.0316753
113.493,0.0459691
113.572,0.0361668
113.651,0.0396956
113.729,0.0192302
113.808,0.0521272
113.887,0.0353665
113.966,0.0447471
114.044,0.0385764
114.123,0.0414158
114.202,0.0294095
114.281,0.0339504
114.36,0.0287963
114.438,0.045452
114.517,0.0281841
114.596,0.0364463
114.675,0.0392792
114.753,0.0358428
114.832,0.0414427
114.911,0.0149803
114.99,0.0433526
115.069,0.037804
115.147,0.0427795
115.226,0.0372394
115.305,0.0338286
115.384,0.0463886
115.463,0.0391923
115.541,0.0330358
115.62,0.012515
115.699,0.0325387
115.778,0.0285811
115.856,0.0427622
115.935,0.0377451
116.014,0.0464699
116.093,0.0564793
116.172,0.0440578
116.25,0.0513076
116.329,0.0511278
116.408,0.0509572
116.487,0.0651469
116.565,0.0597556
116.644,0.0648541
116.723,0.093405
116.802,0.0855521
116.881,0.0906772
116.959,0.0946944
117.038,0.0937961
117.117,0.101473
117.196,0.0968309
117.274,0.102817
117.353,0.0997947
117.432,0.103456
117.511,0.0901555
117.59,0.0821405
117.668,0.0731456
117.747,0.0626754
117.826,0.0512506
117.905,0.0512683
117.984,0.0422008
118.062,0.0496748
118.141,0.0529664
118.22,0.0423312
118.299,0.0530775
118.377,0.0380231
118.456,0.0297015
118.535,0.0212157
118.614,0.0405619
118.693,0.0358609
118.771,0.0407541
118.85,0.0360641
118.929,0.0361732
119.008,0.0303885
119.086,0.0389016
119.165,0.030627
119.244,0.0307511
119.323,0.0392734
119.402,0.0438365
119.48,0.0395324
119.559,0.0109989
119.638,0.0462347
119.717,0.0277943
119.795,0.0423018
119.874,0.0465282
119.953,0.0280464
119.992,0.040198