File: SIBC StrucMag/processed_XRD_spectra/SP11-SM3a_processed.csv
Angle,Intensity
5.01057,0.040405
5.08935,0.04255
5.16813,0.0423353
5.24691,0.0295617
5.32569,0.0406732
5.40447,0.060984
5.48326,0.0543163
5.56204,0.0618814
5.64082,0.0446058
5.7196,0.0300668
5.79838,0.0478018
5.87716,0.0558613
5.95595,0.0689737
6.03473,0.0531873
6.11351,0.0456106
6.19229,0.0478733
6.27107,0.0450604
6.34985,0.0407901
6.42864,0.0362811
6.50742,0.0372905
6.5862,0.0566206
6.66498,0.0647583
6.74376,0.0299799
6.82254,0.0495241
6.90133,0.0492137
6.98011,0.0375799
7.05889,0.0415311
7.13767,0.0625034
7.21645,0.0597785
7.29523,0.0488509
7.37402,0.0806956
7.4528,0.173599
7.53158,0.0712453
7.61036,0.05011
7.68914,0.0607354
7.76792,0.0299918
7.84671,0.0310125
7.92549,0.0405047
8.00427,0.0537569
8.08305,0.0503188
8.16183,0.0418454
8.24061,0.0476493
8.3194,0.0532127
8.39818,0.0585127
8.47696,0.0402912
8.55574,0.0476368
8.63452,0.0283861
8.7133,0.050351
8.79209,0.0524695
8.87087,0.0376996
8.94965,0.0519132
9.02843,0.0601166
9.10721,0.0560624
9.186,0.0359361
9.26478,0.0473022
9.34356,0.0425234
9.42234,0.0465546
9.50112,0.0504489
9.5799,0.0383587
9.65869,0.0609939
9.73747,0.0784544
9.81625,0.0523323
9.89503,0.0493801
9.97381,0.0628558
10.0526,0.0308785
10.1314,0.0453445
10.2102,0.0339073
10.2889,0.0515775
10.3677,0.0409064
10.4465,0.0432778
10.5253,0.0376992
10.6041,0.0421498
10.6828,0.050094
10.7616,0.052276
10.8404,0.030494
10.9192,0.0331757
10.998,0.0516407
11.0768,0.0483262
11.1555,0.0486941
11.2343,0.0490499
11.3131,0.0493985
11.3919,0.0438911
11.4707,0.0356972
11.5494,0.0289052
11.6282,0.0544596
11.707,0.0634247
11.7858,0.0435297
11.8646,0.0478929
11.9434,0.0676325
12.0221,0.0504679
12.1009,0.0563757
12.1797,0.0471382
12.2585,0.0532977
12.3373,0.043596
12.416,0.0593762
12.4948,0.0560467
12.5736,0.0634299
12.6524,0.0425859
12.7312,0.0359711
12.81,0.0534097
12.8887,0.0455944
12.9675,0.0458761
13.0463,0.0394734
13.1251,0.0464399
13.2039,0.0423345
13.2826,0.0624906
13.3614,0.04939
13.4402,0.030826
13.519,0.0434675
13.5978,0.0581432
13.6766,0.0484252
13.7553,0.0465498
13.8341,0.0322532
13.9129,0.0573833
13.9917,0.0495749
14.0705,0.0653506
14.1492,0.0601588
14.228,0.0565943
14.3068,0.0392196
14.3856,0.0551841
14.4644,0.0574763
14.5432,0.0653209
14.6219,0.0378447
14.7007,0.0563717
14.7795,0.0566715
14.8583,0.0904698
14.9371,0.0935962
15.0158,0.130148
15.0946,0.0674276
15.1734,0.0601847
15.2522,0.0698301
15.331,0.064655
15.4097,0.0591101
15.4885,0.043749
15.5673,0.0465204
15.6461,0.0492061
15.7249,0.042124
15.8037,0.0543531
15.8824,0.0668309
15.9612,0.0549794
16.04,0.0349841
16.1188,0.0462484
16.1976,0.0413381
16.2763,0.0443193
16.3551,0.0446332
16.4339,0.0568621
16.5127,0.030457
16.5915,0.0428959
16.6703,0.0458645
16.749,0.0434907
16.8278,0.0380525
16.9066,0.0383371
16.9854,0.0415531
17.0642,0.0498475
17.1429,0.0677905
17.2217,0.0478326
17.3005,0.0531051
17.3793,0.0508853
17.4581,0.0647445
17.5369,0.0584888
17.6156,0.0564243
17.6944,0.0542801
17.7732,0.0379936
17.852,0.0349108
17.9308,0.0315747
18.0095,0.0575245
18.0883,0.0553572
18.1671,0.045087
18.2459,0.0533081
18.3247,0.0535095
18.4035,0.0561658
18.4822,0.0398406
18.561,0.025044
18.6398,0.0369015
18.7186,0.0518742
18.7974,0.0405365
18.8761,0.0406653
18.9549,0.0468077
19.0337,0.0496948
19.1125,0.0621448
19.1913,0.0441511
19.2701,0.0551872
19.3488,0.0412113
19.4276,0.0527606
19.5064,0.0412933
19.5852,0.055358
19.664,0.0501404
19.7427,0.0501443
19.8215,0.0444197
19.9003,0.050142
19.9791,0.0344445
20.0579,0.0553034
20.1367,0.055225
20.2154,0.0410739
20.2942,0.034116
20.373,0.0301443
20.4518,0.033867
20.5306,0.0298189
20.6093,0.0369763
20.6881,0.0460269
20.7669,0.0396896
20.8457,0.0534426
20.9245,0.0283804
21.0032,0.0354942
21.082,0.0385064
21.1608,0.0413221
21.2396,0.0613494
21.3184,0.0491567
21.3972,0.0373924
21.4759,0.0459582
21.5547,0.0457039
21.6335,0.0397325
21.7123,0.0529071
21.7911,0.0476611
21.8698,0.0656727
21.9486,0.0522577
22.0274,0.0729912
22.1062,0.0764262
22.185,0.072639
22.2638,0.0982607
22.3425,0.123821
22.4213,0.149354
22.5001,0.190475
22.5789,0.451821
22.6577,0.480848
22.7364,0.244671
22.8152,0.201691
22.894,0.152788
22.9728,0.13657
23.0516,0.127788
23.1304,0.0975006
23.2091,0.0805398
23.2879,0.0901831
23.3667,0.0754677
23.4455,0.0737533
23.5243,0.0824759
23.603,0.0580989
23.6818,0.0703899
23.7606,0.0514698
23.8394,0.0516287
23.9182,0.0650129
23.997,0.0672009
24.0757,0.04974
24.1545,0.0419462
24.2333,0.0573318
24.3121,0.0395006
24.3909,0.0507169
24.4696,0.0534582
24.5484,0.0339346
24.6272,0.0652202
24.706,0.0675873
24.7848,0.0381956
24.8636,0.0597242
24.9423,0.0665683
25.0211,0.0480855
25.0999,0.0396319
25.1787,0.0655888
25.2575,0.0569218
25.3362,0.0408082
25.415,0.0343634
25.4938,0.0581438
25.5726,0.0480868
25.6514,0.0485118
25.7302,0.0460061
25.8089,0.0521644
25.8877,0.0437719
25.9665,0.0334976
26.0453,0.0296635
26.1241,0.0565595
26.2028,0.0569571
26.2816,0.0425411
26.3604,0.0522563
26.4392,0.0496874
26.518,0.060993
26.5967,0.0587838
26.6755,0.0641438
26.7543,0.0510568
26.8331,0.0449535
26.9119,0.0600393
26.9907,0.0338461
27.0694,0.0491065
27.1482,0.0344036
27.227,0.0463564
27.3058,0.0392199
27.3846,0.0394823
27.4633,0.0471421
27.5421,0.0438386
27.6209,0.0178708
27.6997,0.0478721
27.7785,0.0407023
27.8573,0.0516506
27.936,0.0485826
28.0148,0.0414062
28.0936,0.0267692
28.1724,0.0457064
28.2512,0.0558718
28.3299,0.0644708
28.4087,0.0562818
28.4875,0.0533798
28.5663,0.0502747
28.6451,0.0678223
28.7239,0.0599852
28.8026,0.0472615
28.8814,0.0603082
28.9602,0.0659168
29.039,0.0395846
29.1178,0.0478495
29.1965,0.0579361
29.2753,0.0549519
29.3541,0.0352144
29.4329,0.055092
29.5117,0.0401369
29.5905,0.0518226
29.6692,0.0551216
29.748,0.0551079
29.8268,0.0295078
29.9056,0.00388038
29.9844,0.0480915
30.0631,0.0579489
30.1419,0.0349157
30.2207,0.0686825
30.2995,0.111866
30.3783,0.136135
30.4571,0.0798569
30.5358,0.0730584
30.6146,0.070571
30.6934,0.0679989
30.7722,0.0598743
30.851,0.0597678
30.9297,0.0725156
31.0085,0.0747114
31.0873,0.0565305
31.1661,0.0500301
31.2449,0.056345
31.3237,0.0498518
31.4024,0.0671244
31.4812,0.067045
31.56,0.0617451
31.6388,0.0559485
31.7176,0.0588162
31.7963,0.0494135
31.8751,0.052659
31.9539,0.0526055
32.0327,0.055659
32.1115,0.0492085
32.1903,0.0585087
32.269,0.0524358
32.3478,0.0555069
32.4266,0.0554796
32.5054,0.0523539
32.5842,0.0554374
32.6629,0.0373393
32.7417,0.0324827
32.8205,0.061129
32.8993,0.0489936
32.9781,0.0489931
33.0568,0.0663518
33.1356,0.0554075
33.2144,0.0554163
33.2932,0.049022
33.372,0.0688534
33.4508,0.0455038
33.5295,0.0490716
33.6083,0.03257
33.6871,0.0455662
33.7659,0.0374624
33.8447,0.0524686
33.9234,0.0491922
34.0022,0.0456711
34.081,0.0556546
34.1598,0.0195176
34.2386,0.0557118
34.3174,0.0526328
34.3961,0.0457963
34.4749,0.0328322
34.5537,0.0328365
34.6325,0.0493579
34.7113,0.0586926
34.79,0.0493382
34.8688,0.0376263
34.9476,0.055648
35.0264,0.0417565
35.1052,0.0554892
35.184,0.0554074
35.2627,0.0637184
35.3415,0.0488397
35.4203,0.052064
35.4991,0.0519868
35.5779,0.0607401
35.6566,0.0411285
35.7354,0.0605996
35.8142,0.0318811
35.893,0.0576837
35.9718,0.0482881
36.0506,0.0515417
36.1293,0.0446458
36.2081,0.0514611
36.2869,0.0364508
36.3657,0.0445568
36.4445,0.044543
36.5232,0.0544929
36.602,0.0602229
36.6808,0.0574461
36.7596,0.0364533
36.8384,0.0407578
36.9172,0.0446641
36.9959,0.044723
37.0747,0.0366661
37.1535,0.0448782
37.2323,0.0658804
37.3111,0.0634332
37.3898,0.0520628
37.4686,0.073387
37.5474,0.0860249
37.6262,0.0690363
37.705,0.0715937
37.7838,0.0884793
37.8625,0.0905574
37.9413,0.112192
38.0201,0.174942
38.0989,0.298731
38.1777,0.611111
38.2564,0.592835
38.3352,0.441683
38.414,0.312358
38.4928,0.225689
38.5716,0.177067
38.6503,0.128898
38.7291,0.107594
38.8079,0.094277
38.8867,0.0946764
38.9655,0.0788311
39.0443,0.0745813
39.123,0.0673271
39.2018,0.05894
39.2806,0.0486774
39.3594,0.0565419
39.4382,0.0570041
39.5169,0.0539221
39.5957,0.0462645
39.6745,0.0510058
39.7533,0.0366149
39.8321,0.0593441
39.9109,0.0562337
39.9896,0.0484874
40.0684,0.0568571
40.1472,0.0307246
40.226,0.0637771
40.3048,0.0306663
40.3835,0.0305794
40.4623,0.0485225
40.5411,0.0121476
40.6199,0.0374164
40.6987,0.0518677
40.7775,0.0422712
40.8562,0.0360166
40.935,0.0542274
41.0138,0.0407447
41.0926,0.00891694
41.1714,0.0339851
41.2501,0.059056
41.3289,0.0517049
41.4077,0.0430818
41.4865,0.0319984
41.5653,0.0463743
41.6441,0.0566054
41.7228,0.0649586
41.8016,0.0697143
41.8804,0.0666938
41.9592,0.0478905
42.038,0.0603305
42.1167,0.0653461
42.1955,0.0723049
42.2743,0.080664
42.3531,0.0953838
42.4319,0.12759
42.5107,0.159282
42.5894,0.183729
42.6682,0.196248
42.747,0.181165
42.8258,0.137956
42.9046,0.138759
42.9833,0.116905
43.0621,0.11655
43.1409,0.11341
43.2197,0.114469
43.2985,0.139325
43.3773,0.137838
43.456,0.130382
43.5348,0.0982404
43.6136,0.0467695
43.6924,0.0857154
43.7712,0.0695365
43.8499,0.0518365
43.9287,0.0485655
44.0075,0.0382607
44.0863,0.0447487
44.1651,0.0187833
44.2438,0.0406321
44.3226,0.057557
44.4014,0.054569
44.4802,0.0426478
44.559,0.0353746
44.6378,0.0478502
44.7165,0.0381047
44.7953,0.0498409
44.8741,0.0571431
44.9529,0.0567723
45.0317,0.0430042
45.1104,0.0672358
45.1892,0.058124
45.268,0.079987
45.3468,0.0779075
45.4256,0.103011
45.5044,0.144618
45.5831,0.150494
45.6619,0.165552
45.7407,0.155022
45.8195,0.16058
45.8983,0.173108
45.977,0.188924
46.0558,0.2589
46.1346,0.444327
46.2134,0.826364
46.2922,0.992876
46.371,0.761627
46.4497,0.52917
46.5285,0.379115
46.6073,0.256562
46.6861,0.193787
46.7649,0.152879
46.8436,0.119202
46.9224,0.105078
47.0012,0.0806665
47.08,0.085976
47.1588,0.0617385
47.2376,0.0620092
47.3163,0.050384
47.3951,0.0626125
47.4739,0.056046
47.5527,0.0735522
47.6315,0.0614349
47.7102,0.0373304
47.789,0.0644458
47.8678,0.0445519
47.9466,0.0583925
48.0254,0.0538156
48.1042,0.0172013
48.1829,0.0399358
48.2617,0.0552081
48.3405,0.0556905
48.4193,0.0507222
48.4981,0.0512178
48.5768,0.0487835
48.6556,0.0428809
48.7344,0.0398371
48.8132,0.0502934
48.892,0.0537143
48.9708,0.0331646
49.0495,0.0417494
49.1283,0.0383406
49.2071,0.0461948
49.2859,0.0168749
49.3647,0.0353829
49.4434,0.0568012
49.5222,0.0
49.601,0.0482181
49.6798,0.0633871
49.7586,0.0415459
49.8374,0.0641111
49.9161,0.052967
49.9949,0.0673627
50.0737,0.053648
50.1525,0.0570871
50.2313,0.0574227
50.31,0.0577568
50.3888,0.0610236
50.4676,0.0668126
50.5464,0.0697002
50.6252,0.0648012
50.7039,0.0562889
50.7827,0.0532874
50.8615,0.0461674
50.9403,0.0503039
51.0191,0.0424448
51.0979,0.0246226
51.1766,0.0380997
51.2554,0.0325518
51.3342,0.0475777
51.413,0.0477263
51.4918,0.0435993
51.5705,0.0518613
51.6493,0.0332614
51.7281,0.0589301
51.8069,0.0440114
51.8857,0.0440481
51.9645,0.059054
52.0432,0.0590726
52.122,0.00793801
52.2008,0.0621922
52.2796,0.052228
52.3584,0.0483383
52.4371,0.0259435
52.5159,0.0620642
52.5947,0.0589172
52.6735,0.0649115
52.7523,0.00768783
52.8311,0.0519459
52.9098,0.0480529
52.9886,0.0554336
53.0674,0.0554108
53.1462,0.0437161
53.225,0.0331144
53.3037,0.0479701
53.3825,0.058686
53.4613,0.0675235
53.5401,0.0554099
53.6189,0.0518853
53.6977,0.0554666
53.7764,0.0438303
53.8552,0.0619631
53.934,0.0482078
54.0128,0.0620902
54.0916,0.0887887
54.1703,0.0780419
54.2491,0.107149
54.3279,0.12114
54.4067,0.162831
54.4855,0.275451
54.5643,0.391343
54.643,0.349936
54.7218,0.264639
54.8006,0.179672
54.8794,0.139656
54.9582,0.117945
55.0369,0.0796823
55.1157,0.0865743
55.1945,0.0752761
55.2733,0.0674875
55.3521,0.0548392
55.4309,0.0107962
55.5096,0.0423736
55.5884,0.0474898
55.6672,0.0520365
55.746,0.0432086
55.8248,0.0600282
55.9035,0.0529259
55.9823,0.0441242
56.0611,0.0312066
56.1399,0.0538868
56.2187,0.0616301
56.2974,0.0322101
56.3762,0.0457951
56.455,0.0403994
56.5338,0.0630249
56.6126,0.0468621
56.6914,0.0472255
56.7701,0.0605636
56.8489,0.0347203
56.9277,0.0350889
57.0065,0.0535412
57.0853,0.0581742
57.164,0.0436546
57.2428,0.0545538
57.3216,0.0499902
57.4004,0.0370246
57.4792,0.059641
57.558,0.0673038
57.6367,0.0377835
57.7155,0.0380039
57.7943,0.0382078
57.8731,0.0681642
57.9519,0.0566806
58.0306,0.0749546
58.1094,0.046464
58.1882,0.0466325
58.267,0.0392871
58.3458,0.0213329
58.4246,0.0527767
58.5033,0.062011
58.5821,0.0578594
58.6609,0.0579721
58.7397,0.0219059
58.8185,0.0533053
58.8972,0.058213
58.976,0.0534234
59.0548,0.0477282
59.1336,0.022203
59.2124,0.0584112
59.2912,0.0665714
59.3699,0.0478704
59.4487,0.0627442
59.5275,0.0584847
59.6063,0.0478996
59.6851,0.053653
59.7638,0.0223371
59.8426,0.0627764
59.9214,0.0536668
60.0002,0.0404337
60.079,0.0536761
60.1578,0.0404431
60.2365,0.0536857
60.3153,0.0536907
60.3941,0.0479484
60.4729,0.0628153
60.5517,0.0537066
60.6304,0.0404745
60.7092,0.0479705
60.788,0.0537237
60.8668,0.040492
60.9456,0.022415
61.0244,0.0585871
61.1031,0.0480004
61.1819,0.0585993
61.2607,0.0405219
61.3395,0.0586088
61.4183,0.022443
61.497,0.0405218
61.5758,0.0480041
61.6546,0.0585862
61.7334,0.0585715
61.8122,0.0223795
61.8909,0.0479108
61.9697,0.0536055
62.0485,0.0665223
62.1273,0.0221682
62.2061,0.0699483
62.2849,0.0624743
62.3636,0.0219684
62.4424,0.0623246
62.5212,0.021807
62.6,0.0217232
62.6788,0.0216393
62.7575,0.0396387
62.8363,0.0657667
62.9151,0.02139
62.9939,0.0755573
63.0727,0.0573933
63.1515,0.0753964
63.2302,0.0998906
63.309,0.0688343
63.3878,0.0751641
63.4666,0.0651346
63.5454,0.0520882
63.6241,0.0568622
63.7029,0.0461999
63.7817,0.0609939
63.8605,0.0518139
63.9393,0.0608643
64.0181,0.0565336
64.0968,0.0714542
64.1756,0.02025
64.2544,0.051515
64.3332,0.0605755
64.412,0.0456623
64.4907,0.0562055
64.5695,0.0513127
64.6483,0.0380295
64.7271,0.067746
64.8059,0.0198612
64.8847,0.0676645
64.9634,0.0511039
65.0422,0.0640409
65.121,0.0640061
65.1998,0.0377616
65.2786,0.0639406
65.3573,0.0451889
65.4361,0.0451591
65.5149,0.0195575
65.5937,0.0451034
65.6725,0.0450769
65.7513,0.0507986
65.83,0.0556186
65.9088,0.0598626
65.9876,0.0194029
66.0664,0.0449502
66.1452,0.0636427
66.2239,0.0554843
66.3027,0.0506077
66.3815,0.0554207
66.4603,0.0635153
66.5391,0.055352
66.6179,0.0595809
66.6966,0.0191004
66.7754,0.0446248
66.8542,0.0551674
66.933,0.0502706
67.0118,0.0502171
67.0905,0.0444138
67.1693,0.0501031
67.2481,0.0187231
67.3269,0.0499841
67.4057,0.0441766
67.4845,0.0498637
67.5632,0.0546484
67.642,0.0662645
67.7208,0.0364422
67.7996,0.0438681
67.8784,0.0495489
67.9571,0.04948
68.0359,0.0542547
68.1147,0.0584514
68.1935,0.0360242
68.2723,0.0491786
68.351,0.0539311
68.4298,0.0538325
68.5086,0.0356489
68.5874,0.0487845
68.6662,0.0652029
68.745,0.0353351
68.8237,0.0352173
68.9025,0.0350853
68.9813,0.0424342
69.0601,0.0422894
69.1389,0.034652
69.2176,0.0675652
69.2964,0.0605595
69.3752,0.0341889
69.454,0.015931
69.5328,0.056163
69.6116,0.0335728
69.6903,0.0630609
69.7691,0.0462415
69.8479,0.0401811
69.9267,0.0585778
70.0055,0.054386
70.0842,0.0678624
70.163,0.0445881
70.2418,0.0442288
70.3206,0.0487062
70.3994,0.0434918
70.4782,0.0560974
70.5569,0.0370107
70.6357,0.0472405
70.7145,0.0420356
70.7933,0.0646086
70.8721,0.054303
70.9508,0.06081
71.0296,0.0406448
71.1084,0.0661746
71.1872,0.0529592
71.266,0.0594931
71.3448,0.048471
71.4235,0.0555774
71.5023,0.0517354
71.5811,0.0583043
71.6599,0.0430504
71.7387,0.0608702
71.8174,0.050663
71.8962,0.0661022
71.975,0.0601471
72.0538,0.0780125
72.1326,0.118403
72.2114,0.170026
72.2901,0.202365
72.3689,0.186668
72.4477,0.160339
72.5265,0.127289
72.6053,0.100205
72.684,0.0948227
72.7628,0.0891278
72.8416,0.0909519
72.9204,0.0553079
72.9992,0.0583578
73.078,0.0717315
73.1567,0.0612318
73.2355,0.0444753
73.3143,0.0640223
73.3931,0.0483641
73.4719,0.0519503
73.5506,0.0693592
73.6294,0.0485214
73.7082,0.0554557
73.787,0.0643803
73.8658,0.079075
73.9445,0.0986042
74.0233,0.121973
74.1021,0.158374
74.1809,0.168849
74.2597,0.189692
74.3385,0.159975
74.4172,0.142203
74.496,0.111338
74.5748,0.0806845
74.6536,0.0851896
74.7324,0.0509141
74.8111,0.0473179
74.8899,0.0614055
74.9687,0.043606
75.0475,0.055576
75.1263,0.0336082
75.2051,0.0526396
75.2838,0.0598106
75.3626,0.0568335
75.4414,0.0454896
75.5202,0.0500982
75.599,0.0671926
75.6777,0.0465263
75.7565,0.0287993
75.8353,0.0515115
75.9141,0.0427614
75.9929,0.0298908
76.0717,0.0564714
76.1504,0.0603915
76.2292,0.044241
76.308,0.0644337
76.3868,0.0497967
76.4656,0.0452566
76.5443,0.0585087
76.6231,0.0656299
76.7019,0.0403176
76.7807,0.0405696
76.8595,0.0694872
76.9383,0.0467712
77.017,0.0634426
77.0958,0.056116
77.1746,0.051894
77.2534,0.0413352
77.3322,0.051949
77.4109,0.0338728
77.4897,0.0338668
77.5685,0.0635998
77.6473,0.0156933
77.7261,0.0336771
77.8049,0.0516419
77.8836,0.0334344
77.9624,0.0595163
78.0412,0.0150867
78.12,0.0627865
78.1988,0.0509566
78.2775,0.0459509
78.3563,0.0144666
78.4351,0.058596
78.5139,0.0619791
78.5927,0.0501348
78.6715,0.0580942
78.7502,0.0579245
78.829,0.0646067
78.9078,0.0611334
78.9866,0.0609639
79.0654,0.0442728
79.1441,0.0532188
79.2229,0.0487827
79.3017,0.0528855
79.3805,0.0527208
79.4593,0.0376961
79.538,0.0598048
79.6168,0.0522375
79.6956,0.0559402
79.7744,0.0519271
79.8532,0.0369146
79.932,0.0473598
80.0107,0.0514847
80.0895,0.0470758
80.1683,0.0586171
80.2471,0.0549368
80.3259,0.0548103
80.4046,0.0465609
80.4834,0.0507138
80.5622,0.0414895
80.641,0.0579078
80.7198,0.0671504
80.7986,0.0411964
80.8773,0.0459574
80.9561,0.050149
81.0349,0.0574875
81.1137,0.0538764
81.1925,0.0499627
81.2712,0.0573248
81.35,0.0636926
81.4288,0.0572572
81.5076,0.0455591
81.5864,0.0455469
81.6652,0.0860973
81.7439,0.0942001
81.8227,0.0922649
81.9015,0.155212
81.9803,0.151841
82.0591,0.120969
82.1378,0.121021
82.2166,0.116591
82.2954,0.0773415
82.3742,0.0774211
82.453,0.0724908
82.5318,0.0671307
82.6105,0.064303
82.6893,0.0506044
82.7681,0.054588
82.8469,0.0547208
82.9257,0.0467339
83.0044,0.0618637
83.0832,0.0289575
83.162,0.0621859
83.2408,0.0425325
83.3196,0.0518263
83.3984,0.0371511
83.4771,0.0430917
83.5559,0.0481364
83.6347,0.0564699
83.7135,0.0635332
83.7923,0.0530379
83.871,0.0532591
83.9498,0.0534849
84.0286,0.0446007
84.1074,0.0646603
84.1862,0.0393242
84.265,0.032074
84.3437,0.0398069
84.4225,0.0325613
84.5013,0.0460454
84.5801,0.046293
84.6589,0.0513865
84.7376,0.0410404
84.8164,0.0470246
84.8952,0.0159204
84.974,0.0522871
85.0528,0.041888
85.1316,0.0478219
85.2103,0.0166791
85.2891,0.0481689
85.3679,0.0483214
85.4467,0.0575593
85.5255,0.0172206
85.6042,0.0684493
85.683,0.0354633
85.7618,0.0617476
85.8406,0.0356037
85.9194,0.0356646
85.9981,0.0176348
86.0769,0.0490009
86.1557,0.0719691
86.2345,0.0358407
86.3133,0.0358773
86.3921,0.0582645
86.4708,0.0434367
86.5496,0.0359793
86.6284,0.0583611
86.7072,0.0583852
86.786,0.0179681
86.8647,0.0541478
86.9435,0.0541589
87.0223,0.0493223
87.1011,0.0180083
87.1799,0.0493308
87.2587,0.0584346
87.3374,0.0492943
87.4162,0.0492575
87.495,0.0540611
87.5738,0.0656921
87.6526,0.0491182
87.7313,0.0581765
87.8101,0.0357599
87.8889,0.0654323
87.9677,0.0487919
88.0465,0.0486546
88.1253,0.035273
88.204,0.0532086
88.2828,0.0573261
88.3616,0.0571716
88.4404,0.0608724
88.5192,0.0477301
88.5979,0.0523923
88.6767,0.0416078
88.7555,0.0339227
88.8343,0.0469625
88.9131,0.0467622
88.9919,0.0514061
89.0706,0.0554733
89.1494,0.0591312
89.2282,0.0508017
89.307,0.0457552
89.3858,0.0503996
89.4645,0.0544676
89.5433,0.045153
89.6221,0.0392053
89.7009,0.0810924
89.7797,0.0610754
89.8585,0.0386059
89.9372,0.0670824
90.016,0.0637807
90.0948,0.0847673
90.1736,0.104442
90.2524,0.0887572
90.3311,0.0841704
90.4099,0.0688215
90.4887,0.0625826
90.5675,0.0738727
90.6463,0.0291008
90.7251,0.055082
90.8038,0.0467065
90.8826,0.0545746
90.9614,0.0543075
91.0402,0.0410619
91.119,0.0350361
91.1977,0.00918074
91.2765,0.0531932
91.3553,0.049054
91.4341,0.0625911
91.5129,0.055912
91.5916,0.0556433
91.6704,0.0586834
91.7492,0.0615289
91.828,0.0612787
91.9068,0.0813451
91.9856,0.0608014
92.0643,0.0786585
92.1431,0.111551
92.2219,0.148289
92.3007,0.17534
92.3795,0.178967
92.4582,0.189758
92.537,0.158623
92.6158,0.145103
92.6946,0.124842
92.7734,0.113265
92.8522,0.0792111
92.9309,0.0768841
93.0097,0.0767964
93.0885,0.0789479
93.1673,0.0947436
93.2461,0.066922
93.3248,0.0742813
93.4036,0.0446599
93.4824,0.0614008
93.5612,0.0668642
93.64,0.0668829
93.7188,0.0719337
93.7975,0.0521612
93.8763,0.06435
93.9551,0.0616289
94.0339,0.0488218
94.1127,0.0450568
94.1914,0.058977
94.2702,0.0410115
94.349,0.0528172
94.4278,0.0412795
94.5066,0.0564098
94.5854,0.0309965
94.6641,0.0498871
94.7429,0.0462067
94.8217,0.0502539
94.9005,0.0374768
94.9793,0.0606095
95.058,0.0508667
95.1368,0.0248749
95.2156,0.0548611
95.2944,0.0385711
95.3732,0.0388095
95.452,0.0555759
95.5307,0.0558249
95.6095,0.0395561
95.6883,0.0563365
95.7671,0.0630043
95.8459,0.0494554
95.9246,0.0454549
96.0034,0.0095599
96.0822,0.0541271
96.161,0.0505431
96.2398,0.0359582
96.3186,0.0549575
96.3973,0.0422631
96.4761,0.0367943
96.5549,0.0476617
96.6337,0.0629093
96.7125,0.037598
96.7912,0.0436053
96.87,0.0381154
96.9488,0.0441175
97.0276,0.0443682
97.1064,0.0611366
97.1851,0.0391091
97.2639,0.0318598
97.3427,0.0501832
97.4215,0.0398304
97.5003,0.0458167
97.5791,0.0590266
97.6578,0.0592601
97.7366,0.055632
97.8154,0.0154267
97.8942,0.0337363
97.973,0.0339547
98.0517,0.0522442
98.1305,0.0343582
98.2093,0.052633
98.2881,0.0528208
98.3669,0.0611335
98.4457,0.0613119
98.5244,0.0485026
98.6032,0.0429033
98.682,0.0579048
98.7608,0.0356891
98.8396,0.0177383
98.9183,0.0583014
98.9971,0.0435618
99.0759,0.0585317
99.1547,0.0181868
99.2335,0.0544308
99.3123,0.0183385
99.391,0.043983
99.4698,0.0546441
99.5486,0.0498641
99.6274,0.0628998
99.7062,0.0548246
99.7849,0.0548555
99.8637,0.0591272
99.9425,0.0499946
100.021,0.0367245
100.1,0.0590308
100.179,0.0547041
100.258,0.0589055
100.336,0.0588179
100.415,0.0363326
100.494,0.036147
100.573,0.0491708
100.652,0.0580617
100.73,0.0616929
100.809,0.0171685
100.888,0.0482595
100.967,0.0167101
101.045,0.0478041
101.124,0.0566927
101.203,0.0638778
101.282,0.0669606
101.361,0.0469174
101.439,0.0515488
101.518,0.0556076
101.597,0.0592611
101.676,0.0552007
101.754,0.0588639
101.833,0.0655255
101.912,0.0503601
101.991,0.0453358
102.07,0.0500086
102.148,0.0615199
102.227,0.0448386
102.306,0.0495323
102.385,0.0610655
102.464,0.0573803
102.542,0.0442787
102.621,0.0639847
102.7,0.0440477
102.779,0.0439451
102.857,0.0636773
102.936,0.0724208
103.015,0.0566651
103.094,0.0527399
103.173,0.0633951
103.251,0.0633483
103.33,0.0302476
103.409,0.0564314
103.488,0.063266
103.566,0.0525466
103.645,0.0821489
103.724,0.104331
103.803,0.134792
103.882,0.116057
103.96,0.120717
104.039,0.0774686
104.118,0.114622
104.197,0.0824334
104.276,0.089196
104.354,0.0777626
104.433,0.0753005
104.512,0.0570576
104.591,0.0607192
104.669,0.0572908
104.748,0.0609682
104.827,0.0536959
104.906,0.0733788
104.985,0.0391276
105.063,0.0498771
105.142,0.054309
105.221,0.054478
105.3,0.0503838
105.378,0.0324807
105.457,0.0507486
105.536,0.0460928
105.615,0.0592599
105.694,0.0555981
105.772,0.0515302
105.851,0.0517343
105.93,0.0636181
106.009,0.070233
106.087,0.0475151
106.166,0.0419802
106.245,0.0421935
106.324,0.0529998
106.403,0.0574792
106.481,0.0428224
106.56,0.0652933
106.639,0.0432212
106.718,0.0491613
106.797,0.0541931
106.875,0.0660502
106.954,0.0626726
107.033,0.0498618
107.112,0.0629928
107.19,0.0444277
107.269,0.0445821
107.348,0.0447349
107.427,0.0506338
107.506,0.045035
107.584,0.0451767
107.663,0.0640295
107.742,0.0511797
107.821,0.0642708
107.899,0.0381726
107.978,0.0515198
108.057,0.0383837
108.136,0.0682267
108.215,0.0517641
108.293,0.0385721
108.372,0.0648227
108.451,0.0461353
108.53,0.0610244
108.608,0.0206126
108.687,0.0519473
108.766,0.0206241
108.845,0.0610421
108.924,0.0386675
109.002,0.0461312
109.081,0.0648202
109.16,0.0460581
109.239,0.0565973
109.318,0.0516895
109.396,0.0383865
109.475,0.0645321
109.554,0.0201728
109.633,0.0456812
109.711,0.0200438
109.79,0.0561463
109.869,0.0512383
109.948,0.0560219
110.027,0.0511159
110.105,0.0640299
110.184,0.0639718
110.263,0.0451941
110.342,0.0557316
110.42,0.0556778
110.499,0.0375427
110.578,0.0449826
110.657,0.0449339
110.736,0.063608
110.814,0.063563
110.893,0.0373087
110.972,0.0372675
111.051,0.0553112
111.13,0.0504285
111.208,0.050393
111.287,0.063333
111.366,0.059442
111.445,0.0502982
111.523,0.0502703
111.602,0.0632178
111.681,0.0700459
111.76,0.03696
111.839,0.0188562
111.917,0.0444102
111.996,0.0549854
112.075,0.0666465
112.154,0.0501093
112.232,0.050096
112.311,0.0500839
112.39,0.0368353
112.469,0.0591773
112.548,0.0759172
112.626,0.0368088
112.705,0.0500393
112.784,0.050033
112.863,0.0630006
112.941,0.0187012
113.02,0.0548624
113.099,0.0442651
113.178,0.0548536
113.257,0.0442566
113.335,0.0548447
113.414,0.0499935
113.493,0.0499864
113.572,0.0698042
113.651,0.0548134
113.729,0.0499508
113.808,0.0441735
113.887,0.0441301
113.966,0.0185029
114.044,0.0497621
114.123,0.0545403
114.202,0.0438674
114.281,0.0437546
114.36,0.0541919
114.438,0.0491625
114.517,0.0432208
114.596,0.0487706
114.675,0.0534142
114.753,0.0351203
114.832,0.0529819
114.911,0.052756
114.99,0.0567986
115.069,0.0417118
115.147,0.0339975
115.226,0.0599871
115.305,0.0559084
115.384,0.0333398
115.463,0.0331264
115.541,0.0404067
115.62,0.0507945
115.699,0.0622716
115.778,0.0455526
115.856,0.0618827
115.935,0.0500219
116.014,0.0392505
116.093,0.0390763
116.172,0.0446601
116.25,0.0536165
116.329,0.0573248
116.408,0.0607314
116.487,0.0489189
116.565,0.0487953
116.644,0.0667605
116.723,0.0485687
116.802,0.0749449
116.881,0.102626
116.959,0.0866914
117.038,0.13064
117.117,0.13597
117.196,0.13052
117.274,0.120391
117.353,0.10406
117.432,0.0946908
117.511,0.102218
117.59,0.0841231
117.668,0.0863462
117.747,0.0769931
117.826,0.0660574
117.905,0.0522662
117.984,0.0690462
118.062,0.0661512
118.141,0.0481155
118.22,0.0662534
118.299,0.0720383
118.377,0.0632763
118.456,0.0664543
118.535,0.0378596
118.614,0.0528087
118.693,0.0567597
118.771,0.0604088
118.85,0.0569638
118.929,0.0440981
119.008,0.0490574
119.086,0.0534426
119.165,0.0387011
119.244,0.0388239
119.323,0.0446974
119.402,0.053939
119.48,0.0540675
119.559,0.0541972
119.638,0.0452127
119.717,0.0501823
119.795,0.0141181
119.874,0.0397531
119.953,0.0585024
119.992,0.0546514