File: SIBC StrucMag/processed_XRD_spectra/SP11-SM3b_processed.csv
Angle,Intensity
5.01057,0.0887183
5.08935,0.0947734
5.16813,0.0987692
5.24691,0.100819
5.32569,0.0990688
5.40447,0.0914213
5.48326,0.114248
5.56204,0.105328
5.64082,0.0594083
5.7196,0.086214
5.79838,0.10228
5.87716,0.0947982
5.95595,0.08906
6.03473,0.0893508
6.11351,0.105309
6.19229,0.0899687
6.27107,0.0882474
6.34985,0.106288
6.42864,0.0909818
6.50742,0.0933672
6.5862,0.0812397
6.66498,0.077257
6.74376,0.0776458
6.82254,0.0928766
6.90133,0.0932833
6.98011,0.10168
7.05889,0.0920739
7.13767,0.108316
7.21645,0.110646
7.29523,0.127396
7.37402,0.127848
7.4528,0.138544
7.53158,0.326127
7.61036,0.112934
7.68914,0.0894239
7.76792,0.0961833
7.84671,0.0724728
7.92549,0.0821452
8.00427,0.0734484
8.08305,0.0483557
8.16183,0.0720574
8.24061,0.092843
8.3194,0.070638
8.39818,0.100119
8.47696,0.0740433
8.55574,0.0567993
8.63452,0.0843166
8.7133,0.0577446
8.79209,0.0634886
8.87087,0.083429
8.94965,0.079222
9.02843,0.0910703
9.10721,0.0753083
9.186,0.0984462
9.26478,0.076179
9.34356,0.0471735
9.42234,0.0910262
9.50112,0.0914617
9.5799,0.0896469
9.65869,0.0831473
9.73747,0.0787933
9.81625,0.0767803
9.89503,0.0980595
9.97381,0.102807
10.0526,0.0829544
10.1314,0.0993724
10.2102,0.0814182
10.2889,0.0866473
10.3677,0.07483
10.4465,0.0752697
10.5253,0.0651471
10.6041,0.051164
10.6828,0.0840575
10.7616,0.0844987
10.8404,0.0774739
10.9192,0.110202
10.998,0.0882369
11.0768,0.0682375
11.1555,0.098435
11.2343,0.0847023
11.3131,0.092385
11.3919,0.112857
11.4707,0.0956144
11.5494,0.068127
11.6282,0.0713302
11.707,0.0603524
11.7858,0.0666082
11.8646,0.088203
11.9434,0.0958696
12.0221,0.0707087
12.1009,0.0594678
12.1797,0.0536307
12.2585,0.0747079
12.3373,0.0804898
12.416,0.109748
12.4948,0.0674596
12.5736,0.0894259
12.6524,0.0592346
12.7312,0.0851431
12.81,0.0829371
12.8887,0.0806852
12.9675,0.0608768
13.0463,0.070331
13.1251,0.0617061
13.2039,0.087623
13.2826,0.105214
13.3614,0.0629639
13.4402,0.101337
13.519,0.0757345
13.5978,0.0897414
13.6766,0.0765942
13.7553,0.0619445
13.8341,0.0686284
13.9129,0.101521
13.9917,0.0754675
14.0705,0.0604642
14.1492,0.0902074
14.228,0.110448
14.3068,0.0829766
14.3856,0.0889157
14.4644,0.0594115
14.5432,0.0786681
14.6219,0.0791403
14.7007,0.113247
14.7795,0.0829772
14.8583,0.0917608
14.9371,0.156126
15.0158,0.169296
15.0946,0.205604
15.1734,0.118497
15.2522,0.0969021
15.331,0.0776098
15.4097,0.0718735
15.4885,0.095771
15.5673,0.0908103
15.6461,0.082685
15.7249,0.067365
15.8037,0.0644539
15.8824,0.0812544
15.9612,0.0787027
16.04,0.0660518
16.1188,0.0733659
16.1976,0.080315
16.2763,0.0808566
16.3551,0.0646664
16.4339,0.0850291
16.5127,0.0693046
16.5915,0.0663043
16.6703,0.0738377
16.749,0.0902303
16.8278,0.0714965
16.9066,0.0942709
16.9854,0.0653754
17.0642,0.0765694
17.1429,0.0868435
17.2217,0.0934479
17.3005,0.0636475
17.3793,0.0914283
17.4581,0.0790845
17.5369,0.0689145
17.6156,0.101713
17.6944,0.0735171
17.7732,0.0625282
17.852,0.0668898
17.9308,0.0783099
18.0095,0.071493
18.0883,0.0891235
18.1671,0.107415
18.2459,0.0898856
18.3247,0.0836572
18.4035,0.0805536
18.4822,0.0876498
18.561,0.0739682
18.6398,0.103709
18.7186,0.0885469
18.7974,0.0670814
18.8761,0.0673376
18.9549,0.0714948
19.0337,0.0754486
19.1125,0.0548592
19.1913,0.0756861
19.2701,0.068038
19.3488,0.0795491
19.4276,0.0721547
19.5064,0.0552895
19.5852,0.0796861
19.664,0.0553005
19.7427,0.0866562
19.8215,0.0682358
19.9003,0.0899568
19.9791,0.0899253
20.0579,0.105336
20.1367,0.0795103
20.2154,0.0451436
20.2942,0.0928196
20.373,0.0957338
20.4518,0.0712432
20.5306,0.0585628
20.6093,0.0744343
20.6881,0.0663628
20.7669,0.0482827
20.8457,0.0771214
20.9245,0.0731082
21.0032,0.0834105
21.082,0.0646554
21.1608,0.0924614
21.2396,0.0889566
21.3184,0.0713819
21.3972,0.0882921
21.4759,0.0629821
21.5547,0.0626726
21.6335,0.0905274
21.7123,0.0698405
21.7911,0.096066
21.8698,0.0833031
21.9486,0.06907
22.0274,0.095343
22.1062,0.0826308
22.185,0.0888525
22.2638,0.121772
22.3425,0.174493
22.4213,0.222509
22.5001,0.257652
22.5789,0.389636
22.6577,0.893754
22.7364,0.620594
22.8152,0.397691
22.894,0.297217
22.9728,0.249464
23.0516,0.219318
23.1304,0.206917
23.2091,0.172559
23.2879,0.163155
23.3667,0.144875
23.4455,0.145073
23.5243,0.124738
23.603,0.0894513
23.6818,0.120327
23.7606,0.0961271
23.8394,0.115859
23.9182,0.0809646
23.997,0.105833
24.0757,0.114377
24.1545,0.0715179
24.2333,0.112589
24.3121,0.0959245
24.3909,0.118833
24.4696,0.0696457
24.5484,0.0776497
24.6272,0.0667847
24.706,0.0955108
24.7848,0.0896922
24.8636,0.0869616
24.9423,0.0607508
25.0211,0.0882242
25.0999,0.098625
25.1787,0.0861048
25.2575,0.0718159
25.3362,0.0764554
25.415,0.0554504
25.4938,0.0739119
25.5726,0.0930328
25.6514,0.0623889
25.7302,0.0978226
25.8089,0.0985559
25.8877,0.0691197
25.9665,0.0698588
26.0453,0.0904473
26.1241,0.0713325
26.2028,0.0844346
26.2816,0.085145
26.3604,0.0858469
26.4392,0.0865382
26.518,0.0603904
26.5967,0.0754025
26.6755,0.0759096
26.7543,0.109793
26.8331,0.0892009
26.9119,0.0727255
26.9907,0.0819915
27.0694,0.0735588
27.1482,0.0739533
27.227,0.0950383
27.3058,0.0876366
27.3846,0.059639
27.4633,0.0654556
27.5421,0.0802131
27.6209,0.0889697
27.6997,0.0664371
27.7785,0.0811794
27.8573,0.0670608
27.936,0.0772531
28.0148,0.0863907
28.0936,0.0778411
28.1724,0.0781327
28.2512,0.0872657
28.3299,0.0573758
28.4087,0.0576594
28.4875,0.0638943
28.5663,0.0516065
28.6451,0.10051
28.7239,0.0646825
28.8026,0.0704231
28.8814,0.0651998
28.9602,0.0709364
29.039,0.0856089
29.1178,0.0659344
29.1965,0.0536018
29.2753,0.0947071
29.3541,0.0907922
29.4329,0.099036
29.5117,0.0867842
29.5905,0.0823348
29.6692,0.082387
29.748,0.0824212
29.8268,0.0725511
29.9056,0.0470429
29.9844,0.0610982
30.0631,0.0869088
30.1419,0.072408
30.2207,0.0822203
30.2995,0.110064
30.3783,0.19176
30.4571,0.170344
30.5358,0.156086
30.6146,0.134838
30.6934,0.13476
30.7722,0.113014
30.851,0.125774
30.9297,0.0815053
31.0085,0.0814398
31.0873,0.0765866
31.1661,0.105703
31.2449,0.105651
31.3237,0.0941839
31.4024,0.0658053
31.4812,0.109072
31.56,0.0811127
31.6388,0.0979994
31.7176,0.0979797
31.7963,0.0898965
31.8751,0.101759
31.9539,0.0456315
32.0327,0.0810472
32.1115,0.0762649
32.1903,0.0656971
32.269,0.0980053
32.3478,0.0811199
32.4266,0.0712584
32.5054,0.0857219
32.5842,0.0713389
32.6629,0.0812805
32.7417,0.0659584
32.8205,0.0902338
32.8993,0.0814529
32.9781,0.105899
33.0568,0.0945487
33.1356,0.0768683
33.2144,0.102451
33.2932,0.0538901
33.372,0.0771112
33.4508,0.0908337
33.5295,0.0607455
33.6083,0.0667983
33.6871,0.0723737
33.7659,0.0953252
33.8447,0.0611255
33.9234,0.0825594
34.0022,0.0915008
34.081,0.0384666
34.1598,0.067474
34.2386,0.0917819
34.3174,0.0731331
34.3961,0.096073
34.4749,0.0877244
34.5537,0.0733766
34.6325,0.0963028
34.7113,0.0554668
34.79,0.0963922
34.8688,0.0786631
34.9476,0.0834755
35.0264,0.0834937
35.1052,0.0681348
35.184,0.0835226
35.2627,0.0681548
35.3415,0.0835327
35.4203,0.0923779
35.4991,0.104252
35.5779,0.100455
35.6566,0.0835502
35.7354,0.0681852
35.8142,0.0481616
35.893,0.0965527
35.9718,0.0682381
36.0506,0.0924832
36.1293,0.0393847
36.2081,0.0483008
36.2869,0.0789674
36.3657,0.0790213
36.4445,0.111804
36.5232,0.0560172
36.602,0.100938
36.6808,0.097077
36.7596,0.0842152
36.8384,0.0744322
36.9172,0.0690729
36.9959,0.0891138
37.0747,0.0935705
37.1535,0.0695112
37.2323,0.0696828
37.3111,0.089775
37.3898,0.102354
37.4686,0.0413656
37.5474,0.0904136
37.6262,0.0949659
37.705,0.103292
37.7838,0.111032
37.8625,0.142794
37.9413,0.145861
38.0201,0.175932
38.0989,0.257004
38.1777,0.513329
38.2564,0.775252
38.3352,0.691568
38.414,0.555704
38.4928,0.419285
38.5716,0.327274
38.6503,0.261273
38.7291,0.192535
38.8079,0.165725
38.8867,0.108906
38.9655,0.116859
39.0443,0.117354
39.123,0.152101
39.2018,0.0726581
39.2806,0.0945187
39.3594,0.0902608
39.4382,0.0802192
39.5169,0.0682142
39.5957,0.0753618
39.6745,0.0924651
39.7533,0.0698918
39.8321,0.0830117
39.9109,0.0776185
39.9896,0.0641035
40.0684,0.0441722
40.1472,0.0724793
40.226,0.0958037
40.3048,0.0907344
40.3835,0.0852046
40.4623,0.0906032
40.5411,0.0850162
40.6199,0.0903297
40.6987,0.0900166
40.7775,0.0780866
40.8562,0.0889339
40.935,0.0702726
41.0138,0.0876753
41.0926,0.0815613
41.1714,0.0749692
41.2501,0.0743398
41.3289,0.0796739
41.4077,0.0664975
41.4865,0.0890157
41.5653,0.0652652
41.6441,0.0925856
41.7228,0.0476946
41.8016,0.0760125
41.8804,0.0754235
41.9592,0.0748417
42.038,0.102604
42.1167,0.0842842
42.1955,0.10543
42.2743,0.10488
42.3531,0.137581
42.4319,0.134104
42.5107,0.160572
42.5894,0.211067
42.6682,0.241813
42.747,0.27613
42.8258,0.220487
42.9046,0.201493
42.9833,0.174041
43.0621,0.186516
43.1409,0.173125
43.2197,0.165837
43.2985,0.187248
43.3773,0.176227
43.456,0.196423
43.5348,0.194041
43.6136,0.149116
43.6924,0.0883674
43.7712,0.092085
43.8499,0.0916878
43.9287,0.0684385
44.0075,0.073149
44.0863,0.049623
44.1651,0.0940762
44.2438,0.0897397
44.3226,0.0665003
44.4014,0.0480838
44.4802,0.0602591
44.559,0.0921726
44.6378,0.0878543
44.7165,0.0697403
44.7953,0.0871422
44.8741,0.0907515
44.9529,0.0978913
45.0317,0.0684026
45.1104,0.0575186
45.1892,0.0771413
45.268,0.119553
45.3468,0.0928079
45.4256,0.138481
45.5044,0.150725
45.5831,0.192923
45.6619,0.217835
45.7407,0.192626
45.8195,0.198138
45.8983,0.198052
45.977,0.210566
46.0558,0.232178
46.1346,0.303077
46.2134,0.523615
46.2922,0.912199
46.371,0.987632
46.4497,0.803533
46.5285,0.630472
46.6073,0.464102
46.6861,0.341146
46.7649,0.234759
46.8436,0.20288
46.9224,0.165276
47.0012,0.128596
47.08,0.126115
47.1588,0.114561
47.2376,0.118041
47.3163,0.0949759
47.3951,0.106076
47.4739,0.0958943
47.5527,0.0925889
47.6315,0.104125
47.7102,0.0613629
47.789,0.0773015
47.8678,0.0679922
47.9466,0.0830223
48.0254,0.0879562
48.1042,0.0698606
48.1829,0.101126
48.2617,0.065711
48.3405,0.0817746
48.4193,0.0725834
48.4981,0.0831923
48.5768,0.0791276
48.6556,0.0747635
48.7344,0.0700298
48.8132,0.0861612
48.892,0.0914577
48.9708,0.082905
49.0495,0.101436
49.1283,0.0738812
49.2071,0.080149
49.2859,0.0694968
49.3647,0.104586
49.4434,0.0644889
49.5222,0.071871
49.601,0.0726411
49.6798,0.0848196
49.7586,0.0954183
49.8374,0.0807273
49.9161,0.0813959
49.9949,0.101959
50.0737,0.0701444
50.1525,0.0833254
50.2313,0.0154934
50.31,0.0784583
50.3888,0.090375
50.4676,0.0793945
50.5464,0.0912885
50.6252,0.110468
50.7039,0.133427
50.7827,0.0976844
50.8615,0.0929535
50.9403,0.0752335
51.0191,0.075512
51.0979,0.108235
51.1766,0.0760214
51.2554,0.0762503
51.3342,0.060105
51.413,0.0691744
51.4918,0.0604357
51.5705,0.0948999
51.6493,0.0694106
51.7281,0.0489793
51.8069,0.0835002
51.8857,0.117784
51.9645,0.0768736
52.0432,0.0604903
52.122,0.0893791
52.2008,0.0948363
52.2796,0.0692947
52.3584,0.0767577
52.4371,0.094775
52.5159,0.0998631
52.5947,0.0692336
52.6735,0.0947479
52.7523,0.0947497
52.8311,0.0692398
52.9098,0.0892925
52.9886,0.0893159
53.0674,0.0833871
53.1462,0.0999715
53.225,0.0605247
53.3037,0.100082
53.3825,0.0770154
53.4613,0.0607366
53.5401,0.0771893
53.6189,0.0838866
53.6977,0.1183
53.7764,0.0841313
53.8552,0.105608
53.934,0.0903869
54.0128,0.105929
54.0916,0.0962152
54.1703,0.0849667
54.2491,0.127223
54.3279,0.111262
54.4067,0.141669
54.4855,0.195588
54.5643,0.263937
54.643,0.352047
54.7218,0.332729
54.8006,0.261531
54.8794,0.208002
54.9582,0.156186
55.0369,0.133695
55.1157,0.114197
55.1945,0.105237
55.2733,0.105611
55.3521,0.0894538
55.4309,0.124148
55.5096,0.0761818
55.5884,0.0765993
55.6672,0.0770263
55.746,0.0290889
55.8248,0.0919839
55.9035,0.0783605
55.9823,0.0699445
56.0611,0.0792891
56.1399,0.115176
56.2187,0.0802442
56.2974,0.0718536
56.3762,0.0723447
56.455,0.0333433
56.5338,0.102253
56.6126,0.0738423
56.6914,0.108743
56.7701,0.0353573
56.8489,0.104276
56.9277,0.0847462
57.0065,0.0647932
57.0853,0.0856951
57.164,0.0656723
57.2428,0.0865239
57.3216,0.100998
57.4004,0.0873068
57.4792,0.0876762
57.558,0.095517
57.6367,0.0400063
57.7155,0.0403336
57.7943,0.0406358
57.8731,0.080418
57.9519,0.10961
58.0306,0.0809698
58.1094,0.104186
58.1882,0.0814849
58.267,0.104683
58.3458,0.0703973
58.4246,0.111088
58.5033,0.0428442
58.5821,0.0709091
58.6609,0.0989624
58.7397,0.0711531
58.8185,0.091712
58.8972,0.082944
58.976,0.0435443
59.0548,0.071544
59.1336,0.0715873
59.2124,0.0920616
59.2912,0.106161
59.3699,0.106179
59.4487,0.0921119
59.5275,0.0921111
59.6063,0.0832151
59.6851,0.043678
59.7638,0.083122
59.8426,0.0919414
59.9214,0.0435077
60.0002,0.0829404
60.079,0.0992307
60.1578,0.0991566
60.2365,0.0915975
60.3153,0.043147
60.3941,0.111479
60.4729,0.0429893
60.5517,0.0824066
60.6304,0.10528
60.7092,0.111162
60.788,0.0910468
60.8668,0.0705243
60.9456,0.0820165
61.0244,0.0908183
61.1031,0.0423711
61.1819,0.0817963
61.2607,0.0980865
61.3395,0.0905352
61.4183,0.0815928
61.497,0.0699611
61.5758,0.104422
61.6546,0.0902877
61.7334,0.0697875
61.8122,0.0901807
61.8909,0.0976155
61.9697,0.08121
62.0485,0.0811682
62.1273,0.0900068
62.2061,0.0415987
62.2849,0.0899419
62.3636,0.0899152
62.4424,0.0810159
62.5212,0.0694289
62.6,0.12048
62.6788,0.109886
62.7575,0.0693977
62.8363,0.109878
62.9151,0.0693972
62.9939,0.0898481
63.0727,0.115376
63.1515,0.089871
63.2302,0.0973714
63.309,0.0973919
63.3878,0.0974156
63.4666,0.0695138
63.5454,0.115507
63.6241,0.0416471
63.7029,0.0696102
63.7817,0.0812151
63.8605,0.0812534
63.9393,0.110207
64.0181,0.0418366
64.0968,0.0813748
64.1756,0.0977759
64.2544,0.0814548
64.3332,0.069921
64.412,0.0903875
64.4907,0.0903865
64.5695,0.0814918
64.6483,0.041969
64.7271,0.0977919
64.8059,0.0902646
64.8847,0.097694
64.9634,0.104217
65.0422,0.115571
65.121,0.0810764
65.1998,0.0694064
65.2786,0.0897505
65.3573,0.0807736
65.4361,0.0970348
65.5149,0.10353
65.5937,0.0893584
65.6725,0.103341
65.7513,0.0891737
65.83,0.06864
65.9088,0.103076
65.9876,0.0964
66.0664,0.0799603
66.1452,0.0887607
66.2239,0.0961714
66.3027,0.0886188
66.3815,0.0796766
66.4603,0.102568
66.5391,0.0400603
66.6179,0.0958636
66.6966,0.0678852
66.7754,0.113803
66.8542,0.079366
66.933,0.102281
67.0118,0.0956544
67.0905,0.0792642
67.1693,0.102191
67.2481,0.102169
67.3269,0.0880731
67.4057,0.0880576
67.4845,0.0396716
67.5632,0.0791594
67.642,0.0675848
67.7208,0.0880265
67.7996,0.0675805
67.8784,0.0791502
67.9571,0.0675853
68.0359,0.079159
68.1147,0.0880427
68.1935,0.0676058
68.2723,0.0955436
68.351,0.0676251
68.4298,0.102157
68.5086,0.0955735
68.5874,0.095578
68.6662,0.0792138
68.745,0.102155
68.8237,0.0676078
68.9025,0.0954725
68.9813,0.101945
69.0601,0.0672614
69.1389,0.0875272
69.2176,0.0668864
69.2964,0.10119
69.3752,0.078
69.454,0.0661722
69.5328,0.065855
69.6116,0.0859035
69.6903,0.0650104
69.7691,0.0924721
69.8479,0.0845081
69.9267,0.0356419
70.0055,0.0630733
70.0842,0.0625762
70.163,0.0825253
70.2418,0.0731556
70.3206,0.0815424
70.3994,0.0721782
70.4782,0.0321996
70.5569,0.0941718
70.6357,0.0936989
70.7145,0.086639
70.7933,0.092772
70.8721,0.069364
70.9508,0.0978297
71.0296,0.0684756
71.1084,0.10754
71.1872,0.0764963
71.266,0.0901582
71.3448,0.0756766
71.4235,0.0752816
71.5023,0.094934
71.5811,0.0885997
71.6599,0.0882372
71.7387,0.109222
71.8174,0.0250973
71.8962,0.0931815
71.975,0.0803142
72.0538,0.07253
72.1326,0.102863
72.2114,0.131762
72.2901,0.13505
72.3689,0.127589
72.4477,0.141349
72.5265,0.130808
72.6053,0.134154
72.684,0.101246
72.7628,0.101074
72.8416,0.100917
72.9204,0.105567
72.9992,0.070028
73.078,0.109857
73.1567,0.0609382
73.2355,0.0838048
73.3143,0.0607857
73.3931,0.0696036
73.4719,0.0836446
73.5506,0.083618
73.6294,0.0695286
73.7082,0.100157
73.787,0.109503
73.8658,0.0695939
73.9445,0.0771257
74.0233,0.14932
74.1021,0.149396
74.1809,0.217007
74.2597,0.268269
74.3385,0.315979
74.4172,0.310761
74.496,0.270244
74.5748,0.234867
74.6536,0.180328
74.7324,0.123219
74.8111,0.085166
74.8899,0.0968103
74.9687,0.102125
75.0475,0.0512807
75.1263,0.0860341
75.2051,0.0633198
75.2838,0.0865193
75.3626,0.0522517
75.4414,0.087034
75.5202,0.0872995
75.599,0.0935318
75.6777,0.0878472
75.7565,0.0740505
75.8353,0.0743346
75.9141,0.0541761
75.9929,0.0749099
76.0717,0.0663238
76.1504,0.0895694
76.2292,0.0757861
76.308,0.0901562
76.3868,0.0763728
76.4656,0.0841471
76.5443,0.084434
76.6231,0.0772338
76.7019,0.0291348
76.7807,0.0777597
76.8595,0.0854616
76.9383,0.0577289
77.017,0.0983986
77.0958,0.0926214
77.1746,0.0787226
77.2534,0.12315
77.3322,0.0865483
77.4109,0.0703567
77.4897,0.0994358
77.5685,0.0995939
77.6473,0.0997429
77.7261,0.0798484
77.8049,0.0595421
77.8836,0.0941994
77.9624,0.0713791
78.0412,0.0599414
78.12,0.0716354
78.1988,0.0717482
78.2775,0.0807203
78.3563,0.0882853
78.4351,0.0808745
78.5139,0.100977
78.5927,0.0950741
78.6715,0.0326766
78.7502,0.0885731
78.829,0.0951734
78.9078,0.0326911
78.9866,0.0950834
79.0654,0.106455
79.1441,0.0949303
79.2229,0.125013
79.3017,0.0717755
79.3805,0.0321599
79.4593,0.0320135
79.538,0.0713348
79.6168,0.0875055
79.6956,0.105347
79.7744,0.0937094
79.8532,0.0935142
79.932,0.0992808
80.0107,0.093128
80.0895,0.0584168
80.1683,0.0987115
80.2471,0.0985289
80.3259,0.0299382
80.4046,0.0981739
80.4834,0.0980047
80.5622,0.0778017
80.641,0.0976793
80.7198,0.0774889
80.7986,0.107961
80.8773,0.102721
80.9561,0.0681935
81.0349,0.0285718
81.1137,0.0968675
81.1925,0.0842048
81.2712,0.0766237
81.35,0.0965696
81.4288,0.111863
81.5076,0.106999
81.5864,0.0763158
81.6652,0.0837479
81.7439,0.0762222
81.8227,0.0962249
81.9015,0.0962031
81.9803,0.128477
82.0591,0.120405
82.1378,0.128483
82.2166,0.101695
82.2954,0.106824
82.3742,0.101761
82.453,0.0963289
82.5318,0.0904253
82.6105,0.0838993
82.6893,0.107116
82.7681,0.120835
82.8469,0.0841594
82.9257,0.0767827
83.0044,0.0969321
83.0832,0.0970564
83.162,0.056703
83.2408,0.0772865
83.3196,0.102952
83.3984,0.0916619
83.4771,0.0777471
83.5559,0.103431
83.6347,0.0855691
83.7135,0.0693861
83.7923,0.0859296
83.871,0.0986705
83.9498,0.0583804
84.0286,0.0585772
84.1074,0.0932986
84.1862,0.0589803
84.265,0.0871142
84.3437,0.0593933
84.4225,0.100085
84.5013,0.0713808
84.5801,0.0715903
84.6589,0.0947489
84.7376,0.0808716
84.8164,0.0885505
84.8952,0.0723833
84.974,0.0725725
85.0528,0.0891177
85.1316,0.0818163
85.2103,0.0894773
85.2891,0.102194
85.3679,0.0734187
85.4467,0.0898924
85.5255,0.0899924
85.6042,0.0737254
85.683,0.0826887
85.7618,0.096846
85.8406,0.0739672
85.9194,0.0624565
85.9981,0.0829318
86.0769,0.108459
86.1557,0.0904235
86.2345,0.0740581
86.3133,0.0970005
86.3921,0.0903911
86.4708,0.0345092
86.5496,0.082846
86.6284,0.0344254
86.7072,0.0968244
86.786,0.0901782
86.8647,0.0826393
86.9435,0.0737044
87.0223,0.0965963
87.1011,0.0824555
87.1799,0.0619438
87.2587,0.0963974
87.3374,0.073375
87.4162,0.102219
87.495,0.0732329
87.5738,0.0615882
87.6526,0.0894336
87.7313,0.0334867
87.8101,0.0728882
87.8889,0.0891486
87.9677,0.0815606
88.0465,0.0609982
88.1253,0.0887864
88.204,0.0606976
88.2828,0.0809743
88.3616,0.111422
88.4404,0.032251
88.5192,0.0599985
88.5979,0.100294
88.6767,0.0711786
88.7555,0.0873109
88.8343,0.0870625
88.9131,0.0993595
88.9919,0.0701863
89.0706,0.0928778
89.1494,0.0580936
89.2282,0.0782764
89.307,0.0854981
89.3858,0.0777538
89.4645,0.0915706
89.5433,0.0288622
89.6221,0.0844628
89.7009,0.0908013
89.7797,0.0675959
89.8585,0.076223
89.9372,0.0900526
90.016,0.0898088
90.0948,0.106112
90.1736,0.123629
90.2524,0.114967
90.3311,0.174204
90.4099,0.157193
90.4887,0.156974
90.5675,0.13393
90.6463,0.122302
90.7251,0.0737249
90.8038,0.117783
90.8826,0.0644601
90.9614,0.0731523
91.0402,0.0930116
91.119,0.0728038
91.1977,0.0867167
91.2765,0.0636075
91.3553,0.0864123
91.4341,0.0721954
91.5129,0.0631863
91.5916,0.0860156
91.6704,0.116078
91.7492,0.0628401
91.828,0.0791023
91.9068,0.0856064
91.9856,0.0914872
92.0643,0.0968979
92.1431,0.0913554
92.2219,0.096785
92.3007,0.123549
92.3795,0.144556
92.4582,0.144533
92.537,0.134496
92.6158,0.1679
92.6946,0.134499
92.7734,0.123498
92.8522,0.130993
92.9309,0.106647
93.0097,0.115534
93.0885,0.0968516
93.1673,0.0788801
93.2461,0.0714693
93.3248,0.102171
93.4036,0.0627649
93.4824,0.0858176
93.5612,0.102469
93.64,0.107378
93.7188,0.0861668
93.7975,0.0977413
93.8763,0.0864399
93.9551,0.107923
94.0339,0.103287
94.1127,0.0244548
94.1914,0.0870737
94.2702,0.0932093
94.349,0.0874298
94.4278,0.0735402
94.5066,0.0532863
94.5854,0.0939653
94.6641,0.0882054
94.7429,0.081819
94.8217,0.0945824
94.9005,0.0747594
94.9793,0.100496
95.058,0.0892748
95.1368,0.0829057
95.2156,0.101167
95.2944,0.0833606
95.3732,0.0901842
95.452,0.101858
95.5307,0.0906491
95.6095,0.0768062
95.6883,0.091116
95.7671,0.0772701
95.8459,0.103014
95.9246,0.0688413
96.0034,0.0779389
96.0822,0.0692819
96.161,0.0579316
96.2398,0.0697162
96.3186,0.0862908
96.3973,0.070144
96.4761,0.0308601
96.5549,0.0935231
96.6337,0.0871425
96.7125,0.0709945
96.7912,0.0941595
96.87,0.0714179
96.9488,0.0716294
97.0276,0.0947938
97.1064,0.0720512
97.1851,0.101175
97.2639,0.0888312
97.3427,0.0331823
97.4215,0.107279
97.5003,0.0819622
97.5791,0.0617155
97.6578,0.0823573
97.7366,0.0736733
97.8154,0.0343618
97.8942,0.0624691
97.973,0.0905736
98.0517,0.0743875
98.1305,0.0909194
98.2093,0.103643
98.2881,0.0633299
98.3669,0.0634984
98.4457,0.0841112
98.5244,0.0917612
98.6032,0.104481
98.682,0.0986857
98.7608,0.0847746
98.8396,0.076063
98.9183,0.036731
98.9971,0.0368954
99.0759,0.0649874
99.1547,0.105632
99.2335,0.099833
99.3123,0.0654723
99.391,0.0860776
99.4698,0.100312
99.5486,0.121802
99.6274,0.126482
99.7062,0.100755
99.7849,0.0384419
99.8637,0.0385748
99.9425,0.038699
100.021,0.0782986
100.1,0.0947327
100.179,0.0668547
100.258,0.0784576
100.336,0.0948404
100.415,0.0389955
100.494,0.0389831
100.573,0.0872983
100.652,0.0783243
100.73,0.0945706
100.809,0.0944463
100.888,0.0868243
100.967,0.0777941
101.045,0.0776251
101.124,0.100393
101.203,0.0861223
101.282,0.093409
101.361,0.076853
101.439,0.0996119
101.518,0.0928272
101.597,0.0762769
101.676,0.0924496
101.754,0.120194
101.833,0.0757245
101.912,0.0985011
101.991,0.0638071
102.07,0.0915682
102.148,0.0750456
102.227,0.0633203
102.306,0.0631691
102.385,0.0909527
102.464,0.074454
102.542,0.0743222
102.621,0.0905576
102.7,0.102994
102.779,0.0903301
102.857,0.0968209
102.936,0.0826502
103.015,0.0825642
103.094,0.0824865
103.173,0.0619722
103.251,0.0898402
103.33,0.0897884
103.409,0.10778
103.488,0.0963045
103.566,0.0822031
103.645,0.0733104
103.724,0.0896636
103.803,0.107701
103.882,0.0896768
103.96,0.10225
104.039,0.126497
104.118,0.117692
104.197,0.102363
104.276,0.117793
104.354,0.107962
104.433,0.102552
104.512,0.118006
104.591,0.102718
104.669,0.0827756
104.748,0.108396
104.827,0.0741092
104.906,0.0831012
104.985,0.0743461
105.063,0.090834
105.142,0.0834841
105.221,0.083623
105.3,0.0978434
105.378,0.0355418
105.457,0.0840684
105.536,0.0753485
105.615,0.0843855
105.694,0.0756713
105.772,0.0921968
105.851,0.120294
105.93,0.0991294
106.009,0.0763492
106.087,0.0649552
106.166,0.0855756
106.245,0.0857514
106.324,0.0934104
106.403,0.0861001
106.481,0.0937511
106.56,0.0659829
106.639,0.0777039
106.718,0.106761
106.797,0.0943429
106.875,0.0386165
106.954,0.0782418
107.033,0.0872434
107.112,0.0669191
107.19,0.0786057
107.269,0.0787205
107.348,0.0788256
107.427,0.101868
107.506,0.078989
107.584,0.0954122
107.663,0.0396091
107.742,0.0791534
107.821,0.0676268
107.899,0.0881019
107.978,0.0955985
108.057,0.102194
108.136,0.0676702
108.215,0.0792288
108.293,0.0955687
108.372,0.10213
108.451,0.0880145
108.53,0.0395983
108.608,0.0954125
108.687,0.0878863
108.766,0.0789671
108.845,0.0789249
108.924,0.107797
109.002,0.0952021
109.081,0.0393043
109.16,0.0787612
109.239,0.0787219
109.318,0.0786832
109.396,0.101599
109.475,0.0786083
109.554,0.0874488
109.633,0.10149
109.711,0.101455
109.79,0.0784685
109.869,0.0947959
109.948,0.0784038
110.027,0.094733
110.105,0.112738
110.184,0.0871901
110.263,0.0782848
110.342,0.10121
110.42,0.0871068
110.499,0.0666354
110.578,0.0870549
110.657,0.0665847
110.736,0.0870053
110.814,0.0944647
110.893,0.101034
110.972,0.106972
111.051,0.094395
111.13,0.0943724
111.208,0.0779898
111.287,0.066399
111.366,0.100898
111.445,0.0867992
111.523,0.0867757
111.602,0.0663042
111.681,0.106754
111.76,0.0866777
111.839,0.0661883
111.917,0.0661404
111.996,0.0660898
112.075,0.0776047
112.154,0.100497
112.232,0.077475
112.311,0.0862774
112.39,0.106238
112.469,0.0936042
112.548,0.0771602
112.626,0.0859496
112.705,0.0933433
112.784,0.0373957
112.863,0.0856788
112.941,0.0372145
113.02,0.0995742
113.099,0.0765307
113.178,0.115937
113.257,0.0763504
113.335,0.110656
113.414,0.0850475
113.493,0.0645128
113.572,0.092352
113.651,0.0988558
113.729,0.0987668
113.808,0.0846014
113.887,0.0919961
113.966,0.0919075
114.044,0.0918189
114.123,0.084247
114.202,0.0916419
114.281,0.0981459
114.36,0.104016
114.438,0.063442
114.517,0.0978697
114.596,0.0632483
114.675,0.0352084
114.753,0.0834592
114.832,0.0908114
114.911,0.0972657
114.99,0.0346692
115.069,0.0903745
115.147,0.0622881
115.226,0.0621168
115.305,0.0340012
115.384,0.0962562
115.463,0.089464
115.541,0.0817774
115.62,0.112193
115.699,0.101405
115.778,0.0811635
115.856,0.0809602
115.935,0.0718815
116.014,0.0946342
116.093,0.0803592
116.172,0.0801628
116.25,0.0799689
116.329,0.0314041
116.408,0.105108
116.487,0.0589597
116.565,0.0792236
116.644,0.0865297
116.723,0.0929494
116.802,0.0927805
116.881,0.092616
116.959,0.103898
117.038,0.0923015
117.117,0.118019
117.196,0.113343
117.274,0.147909
117.353,0.103176
117.432,0.077529
117.511,0.11735
117.59,0.102807
117.668,0.102695
117.747,0.0971068
117.826,0.0844519
117.905,0.0909489
117.984,0.0908579
118.062,0.107316
118.141,0.0677374
118.22,0.0965745
118.299,0.076465
118.377,0.107017
118.456,0.0904086
118.535,0.0673943
118.614,0.0673363
118.693,0.0902343
118.771,0.0901815
118.85,0.0960912
118.929,0.0760046
119.008,0.0759563
119.086,0.0670312
119.165,0.0758533
119.244,0.0757787
119.323,0.0667948
119.402,0.0550825
119.48,0.0828349
119.559,0.026776
119.638,0.0544477
119.717,0.0656386
119.795,0.0814947
119.874,0.0734442
119.953,0.0639744
119.992,0.0800268