File: SIBC StrucMag/processed_XRD_spectra/SP11-SM3c_processed.csv
Angle,Intensity
5.01057,0.137317
5.08935,0.139387
5.16813,0.145614
5.24691,0.0895597
5.32569,0.128304
5.40447,0.163672
5.48326,0.113804
5.56204,0.154573
5.64082,0.143431
5.7196,0.136247
5.79838,0.100907
5.87716,0.139103
5.95595,0.127114
6.03473,0.163132
6.11351,0.168587
6.19229,0.107691
6.27107,0.167095
6.34985,0.172537
6.42864,0.181983
6.50742,0.149728
6.5862,0.168173
6.66498,0.134421
6.74376,0.0917737
6.82254,0.146119
6.90133,0.181722
6.98011,0.139674
7.05889,0.200465
7.13767,0.19781
7.21645,0.199126
7.29523,0.171529
7.37402,0.136954
7.4528,0.210985
7.53158,0.238898
7.61036,0.140914
7.68914,0.137493
7.76792,0.175146
7.84671,0.172116
7.92549,0.160073
8.00427,0.0968273
8.08305,0.148858
8.16183,0.140634
8.24061,0.151512
8.3194,0.107576
8.39818,0.19432
8.47696,0.155497
8.55574,0.147275
8.63452,0.143729
8.7133,0.195375
8.79209,0.110103
8.87087,0.152574
8.94965,0.216096
9.02843,0.187559
9.10721,0.109779
9.186,0.116606
9.26478,0.16385
9.34356,0.145478
9.42234,0.131199
9.50112,0.092846
9.5799,0.144078
9.65869,0.170031
9.73747,0.175983
9.81625,0.162762
9.89503,0.122133
9.97381,0.150059
10.0526,0.156299
10.1314,0.141909
10.2102,0.196826
10.2889,0.104591
10.3677,0.134505
10.4465,0.191009
10.5253,0.09556
10.6041,0.202426
10.6828,0.165287
10.7616,0.226682
10.8404,0.201206
10.9192,0.163535
10.998,0.174762
11.0768,0.109626
11.1555,0.134475
11.2343,0.167992
11.3131,0.125083
11.3919,0.23129
11.4707,0.108932
11.5494,0.17754
11.6282,0.146794
11.707,0.208827
11.7858,0.165335
11.8646,0.120736
11.9434,0.145573
12.0221,0.152309
12.1009,0.124015
12.1797,0.205965
12.2585,0.171856
12.3373,0.120947
12.416,0.109008
12.4948,0.169665
12.5736,0.165246
12.6524,0.143439
12.7312,0.183262
12.81,0.156999
12.8887,0.152203
12.9675,0.175526
13.0463,0.142236
13.1251,0.143167
13.2039,0.172878
13.2826,0.184579
13.3614,0.180137
13.4402,0.121421
13.519,0.227184
13.5978,0.0949524
13.6766,0.155403
13.7553,0.173507
13.8341,0.151093
13.9129,0.157925
13.9917,0.181565
14.0705,0.165474
14.1492,0.183249
14.228,0.109073
14.3068,0.137343
14.3856,0.110765
14.4644,0.192075
14.5432,0.170553
14.6219,0.159548
14.7007,0.128271
14.7795,0.135884
14.8583,0.168118
14.9371,0.0681036
15.0158,0.192653
15.0946,0.229805
15.1734,0.188862
15.2522,0.134354
15.331,0.128294
15.4097,0.180116
15.4885,0.137013
15.5673,0.193294
15.6461,0.15855
15.7249,0.206071
15.8037,0.133667
15.8824,0.127424
15.9612,0.128336
16.04,0.198732
16.1188,0.176397
16.1976,0.099963
16.2763,0.132016
16.3551,0.196783
16.4339,0.186093
16.5127,0.192893
16.5915,0.135741
16.6703,0.105549
16.749,0.137616
16.8278,0.107426
16.9066,0.16692
16.9854,0.140436
17.0642,0.155471
17.1429,0.111187
17.2217,0.103555
17.3005,0.151328
17.3793,0.122175
17.4581,0.145969
17.5369,0.174256
17.6156,0.147685
17.6944,0.117402
17.7732,0.149364
17.852,0.101523
17.9308,0.184833
18.0095,0.120668
18.0883,0.166694
18.1671,0.167496
18.2459,0.161354
18.3247,0.155005
18.4035,0.169901
18.4822,0.125479
18.561,0.203637
18.6398,0.143205
18.7186,0.100925
18.7974,0.101727
18.8761,0.129487
18.9549,0.175512
19.0337,0.139306
19.1125,0.215238
19.1913,0.10573
19.2701,0.141697
19.3488,0.15802
19.4276,0.143268
19.5064,0.151939
19.5852,0.136546
19.664,0.137233
19.7427,0.137881
19.8215,0.0534507
19.9003,0.147301
19.9791,0.112659
20.0579,0.139996
20.1367,0.140138
20.2154,0.163848
20.2942,0.131416
20.373,0.139842
20.4518,0.112721
20.5306,0.139501
20.6093,0.112356
20.6881,0.139127
20.7669,0.130375
20.8457,0.154882
20.9245,0.169714
21.0032,0.176696
21.082,0.111298
21.1608,0.10118
21.2396,0.154089
21.3184,0.146056
21.3972,0.168852
21.4759,0.145845
21.5547,0.1613
21.6335,0.119954
21.7123,0.189428
21.7911,0.226651
21.8698,0.137442
21.9486,0.153592
22.0274,0.145732
22.1062,0.175875
22.185,0.168827
22.2638,0.221176
22.3425,0.260171
22.4213,0.227382
22.5001,0.280798
22.5789,0.364245
22.6577,0.579245
22.7364,0.574252
22.8152,0.395636
22.894,0.365456
22.9728,0.353807
23.0516,0.273075
23.1304,0.247196
23.2091,0.193493
23.2879,0.158139
23.3667,0.219902
23.4455,0.195083
23.5243,0.181977
23.603,0.18954
23.6818,0.153184
23.7606,0.240613
23.8394,0.191576
23.9182,0.163211
23.997,0.212819
24.0757,0.140073
24.1545,0.180582
24.2333,0.202269
24.3121,0.174907
24.3909,0.152042
24.4696,0.169073
24.5484,0.15388
24.6272,0.193108
24.706,0.14723
24.7848,0.172904
24.8636,0.188912
24.9423,0.1588
25.0211,0.0884984
25.0999,0.113339
25.1787,0.102994
25.2575,0.162994
25.3362,0.146536
25.415,0.196278
25.4938,0.107299
25.5726,0.167326
25.6514,0.109485
25.7302,0.20064
25.8089,0.178788
25.8877,0.162989
25.9665,0.154935
26.0453,0.189465
26.1241,0.126666
26.2028,0.148079
26.2816,0.138928
26.3604,0.168085
26.4392,0.177412
26.518,0.151146
26.5967,0.151777
26.6755,0.170773
26.7543,0.152974
26.8331,0.171943
26.9119,0.172504
26.9907,0.154657
27.0694,0.110807
27.1482,0.19876
27.227,0.12418
27.3058,0.124652
27.3846,0.17549
27.4633,0.0994756
27.5421,0.148059
27.6209,0.209196
27.6997,0.224187
27.7785,0.168838
27.8573,0.19505
27.936,0.187297
28.0148,0.0686886
28.0936,0.116892
28.1724,0.141154
28.2512,0.162197
28.3299,0.181055
28.4087,0.0710158
28.4875,0.15363
28.5663,0.199239
28.6451,0.132555
28.7239,0.200175
28.8026,0.133492
28.8814,0.121564
28.9602,0.108321
29.039,0.134899
29.1178,0.109256
29.1965,0.147226
29.2753,0.177682
29.3541,0.110616
29.4329,0.124767
29.5117,0.178984
29.5905,0.159968
29.6692,0.179698
29.748,0.160615
29.8268,0.150291
29.9056,0.171139
29.9844,0.0977427
30.0631,0.113531
30.1419,0.139826
30.2207,0.207142
30.2995,0.244301
30.3783,0.199214
30.4571,0.207555
30.5358,0.190892
30.6146,0.182047
30.6934,0.215822
30.7722,0.238102
30.851,0.182415
30.9297,0.115029
31.0085,0.200204
31.0873,0.173379
31.1661,0.16355
31.2449,0.153079
31.3237,0.115714
31.4024,0.141972
31.4812,0.100452
31.56,0.0
31.6388,0.225132
31.7176,0.201549
31.7963,0.193154
31.8751,0.154362
31.9539,0.154543
32.0327,0.202264
32.1115,0.154919
32.1903,0.194082
32.269,0.131515
32.3478,0.166125
32.4266,0.144319
32.5054,0.203464
32.5842,0.103066
32.6629,0.103281
32.7417,0.186575
32.8205,0.11928
32.8993,0.212762
32.9781,0.157231
33.0568,0.0618543
33.1356,0.146267
33.2144,0.13408
33.2932,0.168691
33.372,0.178852
33.4508,0.15846
33.5295,0.179213
33.6083,0.134993
33.6871,0.18891
33.7659,0.158997
33.8447,0.189081
33.9234,0.0635538
34.0022,0.0876811
34.081,0.230565
34.1598,0.106253
34.2386,0.147954
34.3174,0.135566
34.3961,0.169973
34.4749,0.147953
34.5537,0.147935
34.6325,0.147892
34.7113,0.106135
34.79,0.16971
34.8688,0.169588
34.9476,0.179425
35.0264,0.147311
35.1052,0.158568
35.184,0.158418
35.2627,0.120747
35.3415,0.120578
35.4203,0.178495
35.4991,0.14635
35.5779,0.0860498
35.6566,0.168037
35.7354,0.104197
35.8142,0.145721
35.893,0.133181
35.9718,0.167453
36.0506,0.10364
36.1293,0.119085
36.2081,0.167097
36.2869,0.220045
36.3657,0.203836
36.4445,0.195196
36.5232,0.103092
36.602,0.16673
36.6808,0.0845507
36.7596,0.176648
36.8384,0.102996
36.9172,0.203623
36.9959,0.166733
37.0747,0.144775
37.1535,0.166859
37.2323,0.186343
37.3111,0.145051
37.3898,0.167195
37.4686,0.167348
37.5474,0.195882
37.6262,0.177687
37.705,0.157329
37.7838,0.133774
37.8625,0.168447
37.9413,0.213876
38.0201,0.257946
38.0989,0.222426
38.1777,0.428321
38.2564,0.721965
38.3352,0.604265
38.414,0.599022
38.4928,0.489602
38.5716,0.379503
38.6503,0.326211
38.7291,0.315935
38.8079,0.248599
38.8867,0.234622
38.9655,0.211442
39.0443,0.175107
39.123,0.141305
39.2018,0.154325
39.2806,0.154964
39.3594,0.214551
39.4382,0.15628
39.5169,0.115283
39.5957,0.131533
39.6745,0.0982002
39.7533,0.132927
39.8321,0.159742
39.9109,0.076253
39.9896,0.135043
40.0684,0.135727
40.1472,0.173888
40.226,0.1029
40.3048,0.174748
40.3835,0.150999
40.4623,0.150907
40.5411,0.137048
40.6199,0.102822
40.6987,0.136578
40.7775,0.136204
40.8562,0.10165
40.935,0.119431
41.0138,0.134231
41.0926,0.147162
41.1714,0.132667
41.2501,0.116325
41.3289,0.144828
41.4077,0.167857
41.4865,0.129586
41.5653,0.142545
41.6441,0.154198
41.7228,0.141067
41.8016,0.174753
41.8804,0.163431
41.9592,0.162734
42.038,0.150649
42.1167,0.14998
42.1955,0.171336
42.2743,0.180663
42.3531,0.18004
42.4319,0.169468
42.5107,0.295018
42.5894,0.35734
42.6682,0.310823
42.747,0.396883
42.8258,0.400621
42.9046,0.292327
42.9833,0.29184
43.0621,0.313742
43.1409,0.296664
43.2197,0.239536
43.2985,0.284177
43.3773,0.352525
43.456,0.37524
43.5348,0.316558
43.6136,0.321435
43.6924,0.229993
43.7712,0.206713
43.8499,0.206349
43.9287,0.180238
44.0075,0.170449
44.0863,0.0964232
44.1651,0.169683
44.2438,0.137271
44.3226,0.195711
44.4014,0.158261
44.4802,0.135722
44.559,0.146599
44.6378,0.156694
44.7165,0.108067
44.7953,0.16566
44.8741,0.19214
44.9529,0.144143
45.0317,0.191237
45.1104,0.143282
45.1892,0.153497
45.268,0.198269
45.3468,0.181144
45.4256,0.241375
45.5044,0.20524
45.5831,0.240846
45.6619,0.32112
45.7407,0.253444
45.8195,0.294481
45.8983,0.283194
45.977,0.305094
46.0558,0.335431
46.1346,0.33544
46.2134,0.42165
46.2922,0.794026
46.371,0.972954
46.4497,0.854778
46.5285,0.710742
46.6073,0.597036
46.6861,0.422787
46.7649,0.317023
46.8436,0.317392
46.9224,0.228708
47.0012,0.199091
47.08,0.182791
47.1588,0.207999
47.2376,0.230712
47.3163,0.156098
47.3951,0.18508
47.4739,0.122971
47.5527,0.158069
47.6315,0.148178
47.7102,0.178931
47.789,0.160316
47.8678,0.161121
47.9466,0.214998
48.0254,0.140793
48.1042,0.173647
48.1829,0.183971
48.2617,0.143485
48.3405,0.185825
48.4193,0.119264
48.4981,0.0862052
48.5768,0.169334
48.6556,0.0881808
48.7344,0.160722
48.8132,0.108663
48.892,0.12525
48.9708,0.12628
49.0495,0.141028
49.1283,0.176476
49.2071,0.166908
49.2859,0.156552
49.3647,0.168992
49.4434,0.233655
49.5222,0.191507
49.601,0.118703
49.6798,0.161166
49.7586,0.193912
49.8374,0.0785006
49.9161,0.151057
49.9949,0.0799967
50.0737,0.152497
50.1525,0.139447
50.2313,0.166197
50.31,0.125158
50.3888,0.178863
50.4676,0.190101
50.5464,0.142599
50.6252,0.252002
50.7039,0.201887
50.7827,0.2119
50.8615,0.203058
50.9403,0.159264
51.0191,0.19425
51.0979,0.172813
51.1766,0.173376
51.2554,0.132245
51.3342,0.132767
51.413,0.233883
51.4918,0.115305
51.5705,0.11579
51.6493,0.163995
51.7281,0.0345281
51.8069,0.218566
51.8857,0.165064
51.9645,0.136055
52.0432,0.165577
52.122,0.165804
52.2008,0.136735
52.2796,0.118442
52.3584,0.21067
52.4371,0.190178
52.5159,0.152742
52.5947,0.166522
52.6735,0.152876
52.7523,0.152943
52.8311,0.153013
52.9098,0.201207
52.9886,0.119137
53.0674,0.119219
53.1462,0.179444
53.225,0.153429
53.3037,0.137966
53.3825,0.153641
53.4613,0.138196
53.5401,0.138324
53.6189,0.180136
53.6977,0.0960887
53.7764,0.0962489
53.8552,0.212595
53.934,0.154692
54.0128,0.120862
54.0916,0.155098
54.1703,0.169033
54.2491,0.193066
54.3279,0.213893
54.4067,0.223583
54.4855,0.232826
54.5643,0.257807
54.643,0.374456
54.7218,0.313544
54.8006,0.36484
54.8794,0.234427
54.9582,0.184419
55.0369,0.196195
55.1157,0.159074
55.1945,0.196986
55.2733,0.186
55.3521,0.144754
55.4309,0.186866
55.5096,0.219294
55.5884,0.161669
55.6672,0.175854
55.746,0.0464493
55.8248,0.163115
55.9035,0.148051
55.9823,0.177837
56.0611,0.149076
56.1399,0.178877
56.2187,0.107608
56.2974,0.132204
56.3762,0.132745
56.455,0.13329
56.5338,0.152302
56.6126,0.168418
56.6914,0.134946
56.7701,0.153965
56.8489,0.15452
56.9277,0.136605
57.0065,0.171163
57.0853,0.209195
57.164,0.185913
57.2428,0.157144
57.3216,0.0570298
57.4004,0.173685
57.4792,0.211665
57.558,0.174619
57.6367,0.116995
57.7155,0.175544
57.7943,0.141978
57.8731,0.0602908
57.9519,0.203035
58.0306,0.143359
58.1094,0.14382
58.1882,0.178307
58.267,0.178768
58.3458,0.163665
58.4246,0.0635158
58.5033,0.164586
58.5821,0.122525
58.6609,0.181072
58.7397,0.123446
58.8185,0.147963
58.8972,0.148411
58.976,0.230992
59.0548,0.18329
59.1336,0.168132
59.2124,0.197807
59.2912,0.126385
59.3699,0.150774
59.4487,0.169501
59.5275,0.198997
59.6063,0.185474
59.6851,0.151612
59.7638,0.170221
59.8426,0.151887
59.9214,0.151979
60.0002,0.186059
60.079,0.128005
60.1578,0.186109
60.2365,0.186103
60.3153,0.212174
60.3941,0.170421
60.4729,0.0696904
60.5517,0.199434
60.6304,0.185572
60.7092,0.199135
60.788,0.151246
60.8668,0.185124
60.9456,0.198688
61.0244,0.150803
61.1031,0.0685103
61.1819,0.168977
61.2607,0.126313
61.3395,0.0680879
61.4183,0.184126
61.497,0.221503
61.5758,0.125777
61.6546,0.19745
61.7334,0.149588
61.8122,0.183495
61.8909,0.209489
61.9697,0.167703
62.0485,0.220669
62.1273,0.167492
62.2061,0.124869
62.2849,0.148834
62.3636,0.148743
62.4424,0.0665078
62.5212,0.208708
62.6,0.148493
62.6788,0.182444
62.7575,0.182373
62.8363,0.182306
62.9151,0.182242
62.9939,0.0660086
63.0727,0.182126
63.1515,0.208183
63.2302,0.208133
63.309,0.219487
63.3878,0.166369
63.4666,0.147866
63.5454,0.195566
63.6241,0.181817
63.7029,0.123696
63.7817,0.195463
63.8605,0.195433
63.9393,0.123604
64.0181,0.0654888
64.0968,0.166071
64.1756,0.195322
64.2544,0.123496
64.3332,0.14753
64.412,0.123442
64.4907,0.181494
64.5695,0.165888
64.6483,0.165841
64.7271,0.14733
64.8059,0.147277
64.8847,0.207356
64.9634,0.123099
65.0422,0.147096
65.121,0.181058
65.1998,0.146966
65.2786,0.180928
65.3573,0.165299
65.4361,0.206909
65.5149,0.180736
65.5937,0.165108
65.6725,0.122524
65.7513,0.146523
65.83,0.194202
65.9088,0.18043
65.9876,0.164807
66.0664,0.228435
66.1452,0.228378
66.2239,0.164638
66.3027,0.19386
66.3815,0.16453
66.4603,0.0638683
66.5391,0.121904
66.6179,0.121854
66.6966,0.193604
66.7754,0.121756
66.8542,0.179796
66.933,0.179749
67.0118,0.145677
67.0905,0.19337
67.1693,0.145586
67.2481,0.145541
67.3269,0.0633494
67.4057,0.246992
67.4845,0.0632586
67.5632,0.0632082
67.642,0.19304
67.7208,0.145245
67.7996,0.192927
67.8784,0.192867
67.9571,0.163525
68.0359,0.0628405
68.1147,0.205043
68.1935,0.163284
68.2723,0.236848
68.351,0.144645
68.4298,0.163011
68.5086,0.0622883
68.5874,0.215843
68.6662,0.191907
68.745,0.215564
68.8237,0.177911
68.9025,0.191478
68.9813,0.191326
69.0601,0.0612718
69.1389,0.0610854
69.2176,0.161497
69.2964,0.176858
69.3752,0.176648
69.454,0.118345
69.5328,0.202321
69.6116,0.141952
69.6903,0.160161
69.7691,0.175459
69.8479,0.201295
69.9267,0.159343
70.0055,0.174622
70.0842,0.0581562
70.163,0.158463
70.2418,0.19981
70.3206,0.157779
70.3994,0.172957
70.4782,0.186257
70.5569,0.239616
70.6357,0.219754
70.7145,0.208654
70.7933,0.112534
70.8721,0.053845
70.9508,0.0531473
71.0296,0.168574
71.1084,0.133792
71.1872,0.167065
71.266,0.192426
71.3448,0.150008
71.4235,0.164835
71.5023,0.164106
71.5811,0.200897
71.6599,0.162678
71.7387,0.161982
71.8174,0.145734
71.8962,0.198139
71.975,0.173689
72.0538,0.143775
72.1326,0.172433
72.2114,0.15812
72.2901,0.183649
72.3689,0.215066
72.4477,0.140876
72.5265,0.182033
72.6053,0.19294
72.684,0.139396
72.7628,0.180625
72.8416,0.120069
72.9204,0.119674
72.9992,0.201454
73.078,0.152992
73.1567,0.152678
73.2355,0.166105
73.3143,0.13657
73.3931,0.151905
73.4719,0.209791
73.5506,0.135968
73.6294,0.218902
73.7082,0.199396
73.787,0.199312
73.8658,0.227615
73.9445,0.301124
74.0233,0.274437
74.1021,0.378617
74.1809,0.488704
74.2597,0.58311
74.3385,0.644457
74.4172,0.697673
74.496,0.571085
74.5748,0.433972
74.6536,0.348779
74.7324,0.295992
74.8111,0.245929
74.8899,0.246226
74.9687,0.220799
75.0475,0.167341
75.1263,0.180103
75.2051,0.138815
75.2838,0.202906
75.3626,0.19272
75.4414,0.155653
75.5202,0.140549
75.599,0.141025
75.6777,0.170792
75.7565,0.205705
75.8353,0.171814
75.9141,0.124603
75.9929,0.125142
76.0717,0.0435417
76.1504,0.173983
76.2292,0.145267
76.308,0.17511
76.3868,0.199476
76.4656,0.162533
76.5443,0.104983
76.6231,0.105415
76.7019,0.1057
76.7807,0.240452
76.8595,0.177837
76.9383,0.148696
77.017,0.190489
77.0958,0.130461
77.1746,0.190684
77.2534,0.164611
77.3322,0.178305
77.4109,0.148983
77.4897,0.148929
77.5685,0.212559
77.6473,0.106296
77.7261,0.148764
77.8049,0.231789
77.8836,0.106138
77.9624,0.0480025
78.0412,0.164131
78.12,0.130063
78.1988,0.148487
78.2775,0.129991
78.3563,0.201497
78.4351,0.105876
78.5139,0.129916
78.5927,0.163928
78.6715,0.190028
78.7502,0.163914
78.829,0.148351
78.9078,0.248967
78.9866,0.14837
79.0654,0.212073
79.1441,0.129949
79.2229,0.222092
79.3017,0.177752
79.3805,0.148514
79.4593,0.164123
79.538,0.130145
79.6168,0.164225
79.6956,0.177995
79.7744,0.130317
79.8532,0.190518
79.932,0.106389
80.0107,0.202056
80.0895,0.164618
80.1683,0.149128
80.2471,0.178479
80.3259,0.130816
80.4046,0.149352
80.4834,0.1787
80.5622,0.149484
80.641,0.2326
80.7198,0.202614
80.7986,0.048939
80.8773,0.178825
80.9561,0.149533
81.0349,0.149503
81.1137,0.131001
81.1925,0.13096
81.2712,0.149381
81.35,0.130878
81.4288,0.1493
81.5076,0.222913
81.5864,0.106703
81.6652,0.232268
81.7439,0.130695
81.8227,0.130664
81.9015,0.202172
81.9803,0.212757
82.0591,0.241092
82.1378,0.149028
82.2166,0.178288
82.2954,0.178273
82.3742,0.148985
82.453,0.178254
82.5318,0.164537
82.6105,0.202045
82.6893,0.164538
82.7681,0.190653
82.8469,0.130526
82.9257,0.202074
83.0044,0.106494
83.0832,0.048426
83.162,0.149058
83.2408,0.202159
83.3196,0.202188
83.3984,0.149147
83.4771,0.130721
83.5559,0.178499
83.6347,0.190939
83.7135,0.164874
83.7923,0.191032
83.871,0.130947
83.9498,0.165028
84.0286,0.178797
84.1074,0.165144
84.1862,0.202715
84.265,0.178982
84.3437,0.149772
84.4225,0.191514
84.5013,0.165476
84.5801,0.107462
84.6589,0.131597
84.7376,0.191811
84.8164,0.150216
84.8952,0.150296
84.974,0.165943
85.0528,0.17974
85.1316,0.166114
85.2103,0.108114
85.2891,0.180003
85.3679,0.150817
85.4467,0.108386
85.5255,0.13254
85.6042,0.166662
85.683,0.21488
85.7618,0.151292
85.8406,0.132929
85.9194,0.108969
85.9981,0.180871
86.0769,0.180974
86.1557,0.133339
86.2345,0.181184
86.3133,0.181291
86.3921,0.215807
86.4708,0.167795
86.5496,0.181618
86.6284,0.152452
86.7072,0.152564
86.786,0.110155
86.8647,0.205865
86.9435,0.110383
87.0223,0.0524113
87.1011,0.134674
87.1799,0.182529
87.2587,0.110846
87.3374,0.153486
87.4162,0.13514
87.495,0.0531074
87.5738,0.169394
87.6526,0.135475
87.7313,0.183307
87.8101,0.169656
87.8889,0.135654
87.9677,0.154109
88.0465,0.169639
88.1253,0.111499
88.204,0.207022
88.2828,0.153825
88.3616,0.153633
88.4404,0.134937
88.5192,0.18243
88.5979,0.134438
88.6767,0.168211
88.7555,0.133931
88.8343,0.10962
88.9131,0.167458
88.9919,0.180926
89.0706,0.151409
89.1494,0.192848
89.2282,0.180221
89.307,0.166285
89.3858,0.21419
89.4645,0.150295
89.5433,0.203168
89.6221,0.131438
89.7009,0.19139
89.7797,0.232618
89.8585,0.191047
89.9372,0.178493
90.016,0.178345
90.0948,0.222581
90.1736,0.222452
90.2524,0.320524
90.3311,0.320414
90.4099,0.332429
90.4887,0.343958
90.5675,0.272659
90.6463,0.240269
90.7251,0.248771
90.8038,0.20118
90.8826,0.148057
90.9614,0.18969
91.0402,0.147982
91.119,0.163518
91.1977,0.177208
91.2765,0.129452
91.3553,0.147901
91.4341,0.147892
91.5129,0.0472761
91.5916,0.105359
91.6704,0.177156
91.7492,0.177155
91.828,0.10535
91.9068,0.147855
91.9856,0.0472158
92.0643,0.177058
92.1431,0.129244
92.2219,0.10507
92.3007,0.189134
92.3795,0.220976
92.4582,0.200263
92.537,0.20013
92.6158,0.104402
92.6946,0.162362
92.7734,0.21036
92.8522,0.188231
92.9309,0.229524
93.0097,0.219994
93.0885,0.23829
93.1673,0.199234
93.2461,0.175359
93.3248,0.175292
93.4036,0.145958
93.4824,0.161477
93.5612,0.161443
93.64,0.127395
93.7188,0.187521
93.7975,0.161416
93.8763,0.209553
93.9551,0.175175
94.0339,0.187616
94.1127,0.175276
94.1914,0.127608
94.2702,0.146156
94.349,0.175531
94.4278,0.199441
94.5066,0.220144
94.5854,0.12817
94.6641,0.220437
94.7429,0.200025
94.8217,0.176406
94.9005,0.162884
94.9793,0.147522
95.058,0.177013
95.1368,0.177238
95.2156,0.163762
95.2944,0.148443
95.3732,0.212383
95.452,0.164527
95.5307,0.106712
95.6095,0.191189
95.6883,0.149802
95.7671,0.150095
95.8459,0.165959
95.9246,0.179975
96.0034,0.166571
96.0822,0.151318
96.161,0.180909
96.2398,0.181225
96.3186,0.193939
96.3973,0.152582
96.4761,0.168462
96.5549,0.182489
96.6337,0.153521
96.7125,0.169388
96.7912,0.169679
96.87,0.183649
96.9488,0.112051
97.0276,0.136268
97.1064,0.170433
97.1851,0.184275
97.2639,0.170677
97.3427,0.0546035
97.4215,0.20838
97.5003,0.197068
97.5791,0.112953
97.6578,0.137089
97.7366,0.137165
97.8154,0.171267
97.8942,0.113257
97.973,0.137395
98.0517,0.137475
98.1305,0.156018
98.2093,0.0554919
98.2881,0.137725
98.3669,0.156275
98.4457,0.156365
98.5244,0.113936
98.6032,0.172119
98.682,0.172218
98.7608,0.172321
98.8396,0.198536
98.9183,0.138509
98.9971,0.157084
99.0759,0.198873
99.1547,0.172883
99.2335,0.138979
99.3123,0.0569568
99.391,0.157695
99.4698,0.173392
99.5486,0.173527
99.6274,0.187377
99.7062,0.139778
99.7849,0.139921
99.8637,0.174093
99.9425,0.116153
100.021,0.174389
100.1,0.200649
100.179,0.140664
100.258,0.140817
100.336,0.159432
100.415,0.17515
100.494,0.159735
100.573,0.212952
100.652,0.189288
100.73,0.141674
100.809,0.0596317
100.888,0.160315
100.967,0.117843
101.045,0.117883
101.124,0.117914
101.203,0.176018
101.282,0.176018
101.361,0.175994
101.439,0.141915
101.518,0.189583
101.597,0.189508
101.676,0.189431
101.754,0.189355
101.833,0.175567
101.912,0.201602
101.991,0.189131
102.07,0.175347
102.148,0.117189
102.227,0.188919
102.306,0.159575
102.385,0.15951
102.464,0.212521
102.542,0.174951
102.621,0.188605
102.7,0.200947
102.779,0.0586116
102.857,0.0585624
102.936,0.140664
103.015,0.18836
103.094,0.159044
103.173,0.0583982
103.251,0.188252
103.33,0.0583367
103.409,0.158921
103.488,0.140437
103.566,0.200554
103.645,0.17443
103.724,0.158855
103.803,0.188124
103.882,0.11632
103.96,0.174407
104.039,0.188122
104.118,0.174415
104.197,0.15886
104.276,0.158872
104.354,0.188164
104.433,0.21198
104.512,0.116404
104.591,0.212024
104.669,0.17454
104.748,0.251046
104.827,0.0584237
104.906,0.159065
104.985,0.200773
105.063,0.200808
105.142,0.188447
105.221,0.159207
105.3,0.17481
105.378,0.159284
105.457,0.140861
105.536,0.174924
105.615,0.159389
105.694,0.159411
105.772,0.174993
105.851,0.140981
105.93,0.14099
106.009,0.116932
106.087,0.116932
106.166,0.201121
106.245,0.116906
106.324,0.159398
106.403,0.174928
106.481,0.159325
106.56,0.116757
106.639,0.174793
106.718,0.140709
106.797,0.140645
106.875,0.0584278
106.954,0.174531
107.033,0.140433
107.112,0.140363
107.19,0.140293
107.269,0.232337
107.348,0.158618
107.427,0.15855
107.506,0.158484
107.584,0.15842
107.663,0.139894
107.742,0.139833
107.821,0.1738
107.899,0.115655
107.978,0.0575125
108.057,0.158069
108.136,0.139556
108.215,0.157969
108.293,0.187201
108.372,0.199555
108.451,0.139379
108.53,0.22149
108.608,0.221456
108.687,0.187017
108.766,0.115191
108.845,0.157691
108.924,0.173236
109.002,0.17322
109.081,0.139182
109.16,0.139175
109.239,0.173198
109.318,0.199308
109.396,0.186916
109.475,0.173214
109.554,0.18694
109.633,0.157682
109.711,0.139242
109.79,0.187009
109.869,0.115242
109.948,0.210875
110.027,0.139381
110.105,0.139427
110.184,0.187216
110.263,0.139532
110.342,0.173619
110.42,0.115596
110.499,0.173751
110.578,0.0576501
110.657,0.139875
110.736,0.158418
110.814,0.18778
110.893,0.116069
110.972,0.116162
111.051,0.140319
111.13,0.200555
111.208,0.158984
111.287,0.174654
111.366,0.200872
111.445,0.174874
111.523,0.159424
111.602,0.175105
111.681,0.175223
111.76,0.175343
111.839,0.0592911
111.917,0.201698
111.996,0.160148
112.075,0.0596637
112.154,0.160399
112.232,0.160525
112.311,0.16065
112.39,0.176337
112.469,0.176455
112.548,0.202677
112.626,0.224785
112.705,0.142721
112.784,0.142798
112.863,0.161331
112.941,0.176956
113.02,0.190719
113.099,0.143025
113.178,0.143053
113.257,0.143048
113.335,0.143008
113.414,0.161416
113.493,0.118831
113.572,0.176848
113.651,0.176767
113.729,0.176668
113.808,0.160981
113.887,0.118316
113.966,0.202362
114.044,0.142073
114.123,0.0597678
114.202,0.160214
114.281,0.189323
114.36,0.141415
114.438,0.159707
114.517,0.159535
114.596,0.11684
114.675,0.140726
114.753,0.159012
114.832,0.116313
114.911,0.0580479
114.99,0.174042
115.069,0.139835
115.147,0.115591
115.226,0.199599
115.305,0.139267
115.384,0.157529
115.463,0.199002
115.541,0.138666
115.62,0.186205
115.699,0.138268
115.778,0.156532
115.856,0.156336
115.935,0.156141
116.014,0.219634
116.093,0.137295
116.172,0.155568
116.25,0.197055
116.329,0.0545875
116.408,0.17058
116.487,0.184113
116.565,0.15466
116.644,0.154487
116.723,0.183594
116.802,0.195824
116.881,0.183264
116.959,0.169391
117.038,0.182946
117.117,0.217201
117.196,0.206439
117.274,0.216903
117.353,0.153074
117.432,0.168497
117.511,0.182071
117.59,0.194333
117.668,0.152526
117.747,0.181673
117.826,0.133806
117.905,0.109619
117.984,0.181294
118.062,0.181171
118.141,0.13331
118.22,0.180928
118.299,0.109008
118.377,0.108886
118.456,0.15128
118.535,0.151125
118.614,0.180202
118.693,0.132219
118.771,0.192074
118.85,0.107561
118.929,0.131274
119.008,0.178637
119.086,0.190577
119.165,0.129804
119.244,0.147413
119.323,0.210081
119.402,0.145257
119.48,0.159569
119.559,0.1242
119.638,0.0405762
119.717,0.12089
119.795,0.137004
119.874,0.149867
119.953,0.173145
119.992,0.130026