File: DPhil-projects/SIBC StrucMag/processed_XRD_spectra/Fu21Gd-SM1b_processed.csv
Angle,Intensity
5.01057,0.0445213
5.08935,0.044978
5.16813,0.0468143
5.24691,0.0539488
5.32569,0.0377487
5.40447,0.0535663
5.48326,0.0341229
5.56204,0.0633961
5.64082,0.0468274
5.7196,0.0514306
5.79838,0.0585082
5.87716,0.055057
5.95595,0.0555313
6.03473,0.0637434
6.11351,0.0394365
6.19229,0.0569651
6.27107,0.0651827
6.34985,0.0605592
6.42864,0.0529923
6.50742,0.0615323
6.5862,0.0567101
6.66498,0.04733
6.74376,0.0433292
6.82254,0.0595389
6.90133,0.0613707
6.98011,0.0578239
7.05889,0.0725904
7.13767,0.0560561
7.21645,0.0807978
7.29523,0.0824696
7.37402,0.0864216
7.4528,0.0999934
7.53158,0.172601
7.61036,0.141948
7.68914,0.0677479
7.76792,0.0746742
7.84671,0.0473028
7.92549,0.0781803
8.00427,0.0710955
8.08305,0.0456293
8.16183,0.0508647
8.24061,0.0588376
8.3194,0.0437813
8.39818,0.0475168
8.47696,0.0463089
8.55574,0.0561499
8.63452,0.0437767
8.7133,0.0389429
8.79209,0.0688035
8.87087,0.05616
8.94965,0.0469239
9.02843,0.0613096
9.10721,0.0524472
9.186,0.0511505
9.26478,0.0530613
9.34356,0.0467868
9.42234,0.0536579
9.50112,0.0570947
9.5799,0.045961
9.65869,0.0622372
9.73747,0.0683391
9.81625,0.0485557
9.89503,0.0471394
9.97381,0.0524844
10.0526,0.0591579
10.1314,0.0712239
10.2102,0.0392848
10.2889,0.0689816
10.3677,0.0435961
10.4465,0.0382578
10.5253,0.0459961
10.6041,0.054857
10.6828,0.0465922
10.7616,0.05869
10.8404,0.0621311
10.9192,0.0543966
10.998,0.0595883
11.0768,0.0516026
11.1555,0.0519031
11.2343,0.0588842
11.3131,0.0591854
11.3919,0.0510658
11.4707,0.0690904
11.5494,0.0443739
11.6282,0.042759
11.707,0.0699975
11.7858,0.0433646
11.8646,0.0580158
11.9434,0.0477662
12.0221,0.0423156
12.1009,0.0654011
12.1797,0.0641231
12.2585,0.0561417
12.3373,0.0547056
12.416,0.0550108
12.4948,0.0441438
12.5736,0.0573631
12.6524,0.0721534
12.7312,0.0508171
12.81,0.0681516
12.8887,0.0568503
12.9675,0.0459861
13.0463,0.0286603
13.1251,0.0523588
13.2039,0.0580872
13.2826,0.0668192
13.3614,0.0569374
13.4402,0.0458451
13.519,0.0501221
13.5978,0.050436
13.6766,0.0507508
13.7553,0.0620204
13.8341,0.0570183
13.9129,0.0709401
13.9917,0.0594593
14.0705,0.0561324
14.1492,0.0423753
14.228,0.0404744
14.3068,0.0659653
14.3856,0.0628358
14.4644,0.043664
14.5432,0.0634836
14.6219,0.0420916
14.7007,0.0549215
14.7795,0.0571654
14.8583,0.0452933
14.9371,0.0539443
15.0158,0.0671865
15.0946,0.0834977
15.1734,0.0549325
15.2522,0.0491011
15.331,0.0594708
15.4097,0.0635205
15.4885,0.0334641
15.5673,0.0504281
15.6461,0.0440899
15.7249,0.0467109
15.8037,0.0535315
15.8824,0.0598813
15.9612,0.0380907
16.04,0.0301842
16.1188,0.0412844
16.1976,0.0592485
16.2763,0.0575726
16.3551,0.0579003
16.4339,0.0374374
16.5127,0.0522332
16.5915,0.0568226
16.6703,0.0550398
16.749,0.0531973
16.8278,0.0618346
16.9066,0.0493138
16.9854,0.0472638
17.0642,0.0587094
17.1429,0.0429092
17.2217,0.0457447
17.3005,0.073084
17.3793,0.0487908
17.4581,0.0642782
17.5369,0.03903
17.6156,0.0446836
17.6944,0.0474952
17.7732,0.0398754
17.852,0.0636845
17.9308,0.0679247
18.0095,0.0534025
18.0883,0.0559519
18.1671,0.0562074
18.2459,0.0518118
18.3247,0.0652533
18.4035,0.0591859
18.4822,0.044965
18.561,0.0424707
18.6398,0.0427113
18.7186,0.0429456
18.7974,0.0535168
18.8761,0.0487735
18.9549,0.0489989
19.0337,0.0565535
19.1125,0.0590575
19.1913,0.0521692
19.2701,0.0415861
19.3488,0.0417592
19.4276,0.0551331
19.5064,0.0528469
19.5852,0.0478182
19.664,0.0206909
19.7427,0.0479534
19.8215,0.0506161
19.9003,0.0531711
19.9791,0.0624989
20.0579,0.0362179
20.1367,0.0556159
20.2154,0.0531192
20.2942,0.0478688
20.373,0.0600097
20.4518,0.0576089
20.5306,0.044791
20.6093,0.0550073
20.6881,0.0498921
20.7669,0.0522573
20.8457,0.0469251
20.9245,0.0543509
21.0032,0.0492067
21.082,0.0464057
21.1608,0.0406257
21.2396,0.056029
21.3184,0.0372775
21.3972,0.053343
21.4759,0.0531866
21.5547,0.059906
21.6335,0.0479184
21.7123,0.0551105
21.7911,0.0594877
21.8698,0.0500506
21.9486,0.0592454
22.0274,0.0694193
22.1062,0.0568162
22.185,0.0632146
22.2638,0.0818177
22.3425,0.0945229
22.4213,0.0944667
22.5001,0.163847
22.5789,0.271931
22.6577,0.518819
22.7364,0.637203
22.8152,0.355235
22.894,0.214924
22.9728,0.155199
23.0516,0.134294
23.1304,0.116548
23.2091,0.0900015
23.2879,0.0653079
23.3667,0.102122
23.4455,0.0769415
23.5243,0.0888772
23.603,0.0595064
23.6818,0.07559
23.7606,0.059853
23.8394,0.0741251
23.9182,0.0665757
23.997,0.0647463
24.0757,0.0710002
24.1545,0.0692918
24.2333,0.0654989
24.3121,0.0570004
24.3909,0.05729
24.4696,0.0642629
24.5484,0.0555449
24.6272,0.0534292
24.706,0.0562065
24.7848,0.0565533
24.8636,0.0815041
24.9423,0.0523059
25.0211,0.0348416
25.0999,0.0448264
25.1787,0.0452186
25.2575,0.0538574
25.3362,0.0488936
25.415,0.0620084
25.4938,0.0647152
25.5726,0.0376792
25.6514,0.0304927
25.7302,0.0510094
25.8089,0.0593451
25.8877,0.0597833
25.9665,0.0650252
26.0453,0.0402949
26.1241,0.0611037
26.2028,0.0536252
26.2816,0.0339252
26.3604,0.0249079
26.4392,0.057439
26.518,0.0744015
26.5967,0.068054
26.6755,0.0584104
26.7543,0.0613498
26.8331,0.0503846
26.9119,0.0506389
26.9907,0.0670893
27.0694,0.0569595
27.1482,0.0446953
27.227,0.0514774
27.3058,0.0516655
27.3846,0.0518457
27.4633,0.0658072
27.5421,0.0634523
27.6209,0.0636262
27.6997,0.0663287
27.7785,0.0689413
27.8573,0.0528857
27.936,0.0668411
28.0148,0.0670109
28.0936,0.0671805
28.1724,0.0594493
28.2512,0.0505432
28.3299,0.0353126
28.4087,0.0398663
28.4875,0.0680131
28.5663,0.0656409
28.6451,0.0575558
28.7239,0.0546904
28.8026,0.060723
28.8814,0.0662377
28.9602,0.051935
29.039,0.0450266
29.1178,0.0451471
29.1965,0.0613694
29.2753,0.0523895
29.3541,0.0742534
29.4329,0.0415489
29.5117,0.0670811
29.5905,0.0493122
29.6692,0.0493694
29.748,0.0559968
29.8268,0.0458006
29.9056,0.0646909
29.9844,0.0647166
30.0631,0.061996
30.1419,0.0673808
30.2207,0.0647549
30.2995,0.0875389
30.3783,0.120799
30.4571,0.139416
30.5358,0.107078
30.6146,0.0722716
30.6934,0.0646528
30.7722,0.0590243
30.851,0.0374031
30.9297,0.0559732
31.0085,0.0493728
31.0873,0.0812005
31.1661,0.0721552
31.2449,0.0323494
31.3237,0.0493221
31.4024,0.055898
31.4812,0.0187172
31.56,0.0558869
31.6388,0.06714
31.7176,0.0671401
31.7963,0.0558871
31.8751,0.0456598
31.9539,0.0589163
32.0327,0.058927
32.1115,0.0589405
32.1903,0.0671962
32.269,0.0527713
32.3478,0.052794
32.4266,0.0590252
32.5054,0.0812961
32.5842,0.0698557
32.6629,0.0855216
32.7417,0.0792421
32.8205,0.10052
32.8993,0.169808
32.9781,0.266647
33.0568,0.209212
33.1356,0.135943
33.2144,0.0702312
33.2932,0.0651332
33.372,0.0678262
33.4508,0.0500529
33.5295,0.0567067
33.6083,0.0730049
33.6871,0.0332855
33.7659,0.0569298
33.8447,0.0428094
33.9234,0.0629748
34.0022,0.0429731
34.081,0.0685124
34.1598,0.0278679
34.2386,0.0604469
34.3174,0.0575193
34.3961,0.057609
34.4749,0.0607159
34.5537,0.0475585
34.6325,0.0392954
34.7113,0.0513899
34.79,0.0548757
34.8688,0.0439511
34.9476,0.0641142
35.0264,0.0480691
35.1052,0.0551747
35.184,0.0518123
35.2627,0.0397957
35.3415,0.0551424
35.4203,0.0440656
35.4991,0.0516075
35.5779,0.04788
35.6566,0.058028
35.7354,0.0609556
35.8142,0.0664671
35.893,0.0511453
35.9718,0.0606294
36.0506,0.063381
36.1293,0.0541907
36.2081,0.0506818
36.2869,0.0505706
36.3657,0.042848
36.4445,0.0427431
36.5232,0.0536525
36.602,0.0425459
36.6808,0.0500693
36.7596,0.0463355
36.8384,0.0532989
36.9172,0.0378272
36.9959,0.0497631
37.0747,0.0530991
37.1535,0.0648627
37.2323,0.0592089
37.3111,0.0699427
37.3898,0.0591473
37.4686,0.0529247
37.5474,0.081364
37.6262,0.081366
37.705,0.0792172
37.7838,0.0933168
37.8625,0.107189
37.9413,0.155969
38.0201,0.19634
38.0989,0.262122
38.1777,0.362508
38.2564,0.54105
38.3352,0.586854
38.414,0.415743
38.4928,0.261296
38.5716,0.168495
38.6503,0.135389
38.7291,0.111475
38.8079,0.09082
38.8867,0.0890388
38.9655,0.0763948
39.0443,0.0666333
39.123,0.0768035
39.2018,0.0722208
39.2806,0.0586642
39.3594,0.0557128
39.4382,0.0525635
39.5169,0.0491699
39.5957,0.0454648
39.6745,0.0533483
39.7533,0.0536233
39.8321,0.0502559
39.9109,0.0575846
39.9896,0.0424759
40.0684,0.0581664
40.1472,0.0702763
40.226,0.0324706
40.3048,0.0386736
40.3835,0.0389572
40.4623,0.0255914
40.5411,0.0487438
40.6199,0.0564956
40.6987,0.049002
40.7775,0.026135
40.8562,0.0634032
40.935,0.0568782
41.0138,0.0398526
41.0926,0.0662231
41.1714,0.0525993
41.2501,0.0591816
41.3289,0.0383154
41.4077,0.070008
41.4865,0.0576784
41.5653,0.0417549
41.6441,0.056606
41.7228,0.0489778
41.8016,0.0520055
41.8804,0.0665797
41.9592,0.0507266
42.038,0.0534738
42.1167,0.0560091
42.1955,0.0317853
42.2743,0.0515072
42.3531,0.0599254
42.4319,0.0347981
42.5107,0.0385323
42.5894,0.055096
42.6682,0.0544462
42.747,0.053799
42.8258,0.0501386
42.9046,0.0703731
42.9833,0.0601164
43.0621,0.0379961
43.1409,0.0684762
43.2197,0.0607639
43.2985,0.0549886
43.3773,0.0595378
43.456,0.0564053
43.5348,0.0739703
43.6136,0.0601943
43.6924,0.0546458
43.7712,0.0566077
43.8499,0.0631401
43.9287,0.0529737
44.0075,0.0574099
44.0863,0.049288
44.1651,0.0632502
44.2438,0.0509143
44.3226,0.0644377
44.4014,0.0618135
44.4802,0.0382698
44.559,0.0564281
44.6378,0.0404468
44.7165,0.0429245
44.7953,0.0479239
44.8741,0.0475741
44.9529,0.0590877
45.0317,0.0630481
45.1104,0.0585007
45.1892,0.0625089
45.268,0.0622766
45.3468,0.0680866
45.4256,0.0805717
45.5044,0.0961683
45.5831,0.109919
45.6619,0.122367
45.7407,0.136041
45.8195,0.152648
45.8983,0.185255
45.977,0.238519
46.0558,0.31292
46.1346,0.415133
46.2134,0.576523
46.2922,0.820673
46.371,0.978092
46.4497,0.8501
46.5285,0.594662
46.6073,0.396869
46.6861,0.283606
46.7649,0.221855
46.8436,0.181635
46.9224,0.146182
47.0012,0.114136
47.08,0.124618
47.1588,0.111101
47.2376,0.121925
47.3163,0.106658
47.3951,0.114034
47.4739,0.073649
47.5527,0.0722986
47.6315,0.0552963
47.7102,0.0534215
47.789,0.0614298
47.8678,0.0573251
47.9466,0.0501414
48.0254,0.0587764
48.1042,0.0829173
48.1829,0.0551372
48.2617,0.0441044
48.3405,0.0480894
48.4193,0.0423131
48.4981,0.0527327
48.5768,0.053561
48.6556,0.0481919
48.7344,0.0227484
48.8132,0.0616973
48.892,0.0539215
48.9708,0.0405723
49.0495,0.041407
49.1283,0.0422101
49.2071,0.0506051
49.2859,0.0638447
49.3647,0.048486
49.4434,0.029991
49.5222,0.0416196
49.601,0.0577418
49.6798,0.0702413
49.7586,0.0436588
49.8374,0.0596485
49.9161,0.0531769
49.9949,0.049767
50.0737,0.0503089
50.1525,0.0414699
50.2313,0.0419709
50.31,0.051776
50.3888,0.0291649
50.4676,0.0480763
50.5464,0.0434057
50.6252,0.0702871
50.7039,0.0675565
50.7827,0.0442571
50.8615,0.0578235
50.9403,0.0310654
51.0191,0.0618077
51.0979,0.0583014
51.1766,0.0544714
51.2554,0.0585702
51.3342,0.0586895
51.413,0.0454426
51.4918,0.0454913
51.5705,0.0588499
51.6493,0.0396213
51.7281,0.0588728
51.8069,0.0659185
51.8857,0.0133396
51.9645,0.0548669
52.0432,0.0454104
52.122,0.0622541
52.2008,0.0544734
52.2796,0.0542948
52.3584,0.0617187
52.4371,0.0578708
52.5159,0.0443317
52.5947,0.0491063
52.6735,0.0532879
52.7523,0.0672822
52.8311,0.0528802
52.9098,0.0526808
52.9886,0.0480978
53.0674,0.0370196
53.1462,0.0693268
53.225,0.0475458
53.3037,0.0517635
53.3825,0.0555685
53.4613,0.0656478
53.5401,0.0552719
53.6189,0.0621819
53.6977,0.051049
53.7764,0.0585526
53.8552,0.0548052
53.934,0.0708356
54.0128,0.0786614
54.0916,0.0856902
54.1703,0.0878644
54.2491,0.114117
54.3279,0.122013
54.4067,0.155302
54.4855,0.195754
54.5643,0.235102
54.643,0.316129
54.7218,0.342607
54.8006,0.275917
54.8794,0.209415
54.9582,0.156855
55.0369,0.128453
55.1157,0.0987064
55.1945,0.0792552
55.2733,0.0794124
55.3521,0.0820247
55.4309,0.0772391
55.5096,0.0748087
55.5884,0.0478073
55.6672,0.0563869
55.746,0.0636675
55.8248,0.0568735
55.9035,0.0641777
55.9823,0.0574063
56.0611,0.053722
56.1399,0.0616293
56.2187,0.0685158
56.2974,0.071843
56.3762,0.0549466
56.455,0.0322986
56.5338,0.0632225
56.6126,0.063563
56.6914,0.0639095
56.7701,0.0676566
56.8489,0.0609696
56.9277,0.06133
57.0065,0.0533391
57.0853,0.0428176
57.164,0.0584623
57.2428,0.0435566
57.3216,0.0548158
57.4004,0.0635412
57.4792,0.0709515
57.558,0.0642653
57.6367,0.0562481
57.7155,0.0456711
57.7943,0.0568505
57.8731,0.0615216
57.9519,0.0465253
58.0306,0.0467999
58.1094,0.0470695
58.1882,0.0210496
58.267,0.0535029
58.3458,0.0537447
58.4246,0.0709465
58.5033,0.0675022
58.5821,0.0713475
58.6609,0.0409491
58.7397,0.0547412
58.8185,0.0413142
58.8972,0.0491794
58.976,0.0602103
59.0548,0.041748
59.1336,0.0495648
59.2124,0.0649536
59.2912,0.0760707
59.3699,0.0557912
59.4487,0.0422719
59.5275,0.0500458
59.6063,0.0560207
59.6851,0.0694206
59.7638,0.0425416
59.8426,0.042603
59.9214,0.0426631
60.0002,0.0613074
60.079,0.0563792
60.1578,0.0614068
60.2365,0.0768488
60.3153,0.0698466
60.3941,0.0698859
60.4729,0.0506797
60.5517,0.0659859
60.6304,0.0507323
60.7092,0.0736411
60.788,0.0430673
60.8668,0.0616682
60.9456,0.0566996
61.0244,0.0567079
61.1031,0.0660765
61.1819,0.0802668
61.2607,0.0430789
61.3395,0.0660384
61.4183,0.069988
61.497,0.0660019
61.5758,0.0566125
61.6546,0.0429797
61.7334,0.0506461
61.8122,0.0614979
61.8909,0.0428739
61.9697,0.0505362
62.0485,0.0504998
62.1273,0.0504639
62.2061,0.0504288
62.2849,0.0656701
62.3636,0.0562682
62.4424,0.061216
62.5212,0.0611847
62.6,0.0695094
62.6788,0.0425388
62.7575,0.0610982
62.8363,0.0694269
62.9151,0.0238737
62.9939,0.0560444
63.0727,0.069358
63.1515,0.076382
63.2302,0.0653539
63.309,0.069305
63.3878,0.0854083
63.4666,0.0825273
63.5454,0.0500256
63.6241,0.0423179
63.7029,0.0500103
63.7817,0.0652812
63.8605,0.0559099
63.9393,0.0608887
64.0181,0.0652773
64.0968,0.0762893
64.1756,0.0559141
64.2544,0.0692543
64.3332,0.0609061
64.412,0.0729166
64.4907,0.0609228
64.5695,0.0423464
64.6483,0.0609448
64.7271,0.065345
64.8059,0.0423834
64.8847,0.079572
64.9634,0.0560192
65.0422,0.0501269
65.121,0.0654188
65.1998,0.0238731
65.2786,0.0764621
65.3573,0.0654687
65.4361,0.0610976
65.5149,0.0655018
65.5937,0.056149
65.6725,0.0425565
65.7513,0.0239817
65.83,0.0561852
65.9088,0.0731737
65.9876,0.0561905
66.0664,0.0502773
66.1452,0.0731589
66.2239,0.0561638
66.3027,0.0611254
66.3815,0.0502051
66.4603,0.0730506
66.5391,0.0693513
66.6179,0.0500545
66.6966,0.0652735
66.7754,0.0608246
66.8542,0.0691113
66.933,0.0650673
67.0118,0.0689492
67.0905,0.0555238
67.1693,0.060409
67.2481,0.0231237
67.3269,0.049258
67.4057,0.0549577
67.4845,0.0488017
67.5632,0.0594269
67.642,0.0635496
67.7208,0.0588969
67.7996,0.0214582
67.8784,0.0627568
67.9571,0.0701092
68.0359,0.0578455
68.1147,0.038999
68.1935,0.0656833
68.2723,0.0461851
68.351,0.0459319
68.4298,0.060957
68.5086,0.0563209
68.5874,0.0746625
68.6662,0.0678352
68.745,0.0675953
68.8237,0.0707538
68.9025,0.0899352
68.9813,0.100841
69.0601,0.144916
69.1389,0.178234
69.2176,0.192394
69.2964,0.179926
69.3752,0.149349
69.454,0.116493
69.5328,0.0905382
69.6116,0.085531
69.6903,0.0853288
69.7691,0.0611122
69.8479,0.0416736
69.9267,0.0607237
70.0055,0.0471992
70.0842,0.060348
70.163,0.0468299
70.2418,0.0560183
70.3206,0.0634567
70.3994,0.0141066
70.4782,0.055499
70.5569,0.0459645
70.6357,0.059137
70.7145,0.0778367
70.7933,0.0395801
70.8721,0.0623197
70.9508,0.0585247
71.0296,0.0544151
71.1084,0.0542768
71.1872,0.0447749
71.266,0.0387385
71.3448,0.0445225
71.4235,0.0613871
71.5023,0.0576262
71.5811,0.0677514
71.6599,0.0676502
71.7387,0.0734402
71.8174,0.0532671
71.8962,0.0760107
71.975,0.0785646
72.0538,0.0881164
72.1326,0.108
72.2114,0.137429
72.2901,0.145353
72.3689,0.159979
72.4477,0.178536
72.5265,0.181584
72.6053,0.13451
72.684,0.119592
72.7628,0.109569
72.8416,0.0943512
72.9204,0.0756354
72.9992,0.0604541
73.078,0.0833029
73.1567,0.0783791
73.2355,0.056947
73.3143,0.0731291
73.3931,0.0487301
73.4719,0.0642101
73.5506,0.0609053
73.6294,0.0533895
73.7082,0.0645073
73.787,0.0708286
73.8658,0.0613519
73.9445,0.0578361
74.0233,0.0844348
74.1021,0.0796117
74.1809,0.117895
74.2597,0.131928
74.3385,0.143192
74.4172,0.147293
74.496,0.130998
74.5748,0.108408
74.6536,0.0808447
74.7324,0.0595586
74.8111,0.0668094
74.8899,0.0702113
74.9687,0.051842
75.0475,0.0411766
75.1263,0.0522919
75.2051,0.0475429
75.2838,0.0477782
75.3626,0.0529976
75.4414,0.0615945
75.5202,0.068883
75.599,0.0657353
75.6777,0.0693807
75.7565,0.0492542
75.8353,0.0544881
75.9141,0.0361556
75.9929,0.0549981
76.0717,0.0502734
76.1504,0.0598943
76.2292,0.0557417
76.308,0.050957
76.3868,0.0644457
76.4656,0.06061
76.5443,0.0683486
76.6231,0.0514841
76.7019,0.0456888
76.7807,0.0566825
76.8595,0.0518
76.9383,0.0754583
77.017,0.0519777
77.0958,0.0690465
77.1746,0.0654833
77.2534,0.0615999
77.3322,0.0726924
77.4109,0.0693786
77.4897,0.0388703
77.5685,0.0695413
77.6473,0.0467314
77.7261,0.0527195
77.8049,0.0621675
77.8836,0.0662124
77.9624,0.0529513
78.0412,0.0471122
78.12,0.0664185
78.1988,0.0472353
78.2775,0.0581792
78.3563,0.0396371
78.4351,0.0532641
78.5139,0.0702365
78.5927,0.0473099
78.6715,0.0472561
78.7502,0.0394905
78.829,0.0530187
78.9078,0.0470039
78.9866,0.0527554
79.0654,0.0389541
79.1441,0.069335
79.2229,0.0521382
79.3017,0.0519228
79.3805,0.0458002
79.4593,0.0648294
79.538,0.0807354
79.6168,0.0644087
79.6956,0.0602359
79.7744,0.0556459
79.8532,0.0598357
79.932,0.0502742
80.0107,0.0670693
80.0895,0.0548844
80.1683,0.0590962
80.2471,0.0436508
80.3259,0.0493961
80.4046,0.0586094
80.4834,0.0584623
80.5622,0.0430475
80.641,0.0538052
80.7198,0.0165095
80.7986,0.0619261
80.8773,0.0618232
80.9561,0.0687733
81.0349,0.0616466
81.1137,0.0718059
81.1925,0.0531559
81.2712,0.0651062
81.35,0.0829045
81.4288,0.0716181
81.5076,0.071598
81.5864,0.0774739
81.6652,0.0746068
81.7439,0.103023
81.8227,0.106924
81.9015,0.134916
81.9803,0.124326
82.0591,0.130581
82.1378,0.130648
82.2166,0.122921
82.2954,0.0993582
82.3742,0.0807198
82.453,0.0808277
82.5318,0.0581197
82.6105,0.0692571
82.6893,0.06235
82.7681,0.066143
82.8469,0.0434059
82.9257,0.0588435
83.0044,0.0762285
83.0832,0.0591897
83.162,0.0440975
83.2408,0.0705736
83.3196,0.0181972
83.3984,0.0599605
83.4771,0.0601666
83.5559,0.0603768
83.6347,0.0512224
83.7135,0.0608075
83.7923,0.0686414
83.871,0.0382724
83.9498,0.0654356
84.0286,0.0656529
84.1074,0.0525184
84.1862,0.0526973
84.265,0.0392572
84.3437,0.0580029
84.4225,0.0581507
84.5013,0.066639
84.5801,0.047507
84.6589,0.0628597
84.7376,0.0739158
84.8164,0.0213744
84.8952,0.0585745
84.974,0.0629835
85.0528,0.0629993
85.1316,0.0706263
85.2103,0.0536541
85.2891,0.0740433
85.3679,0.0706588
85.4467,0.0586672
85.5255,0.0536982
85.6042,0.0537098
85.683,0.0478142
85.7618,0.0537343
85.8406,0.0537471
85.9194,0.0587408
85.9981,0.080358
86.0769,0.0587688
86.1557,0.0631714
86.2345,0.0587989
86.3133,0.0708173
86.3921,0.0538505
86.4708,0.0479596
86.5496,0.0538845
86.6284,0.0708853
86.7072,0.0589007
86.786,0.067274
86.8647,0.0672929
86.9435,0.0589574
87.0223,0.0709795
87.1011,0.0589966
87.1799,0.0218424
87.2587,0.0540564
87.3374,0.0218828
87.4162,0.054097
87.495,0.0482093
87.5738,0.0541355
87.6526,0.0482439
87.7313,0.0675006
87.8101,0.0541774
87.8889,0.048276
87.9677,0.048271
88.0465,0.0405552
88.1253,0.0482303
88.204,0.063478
88.2828,0.0481698
88.3616,0.06341
88.4404,0.021806
88.5192,0.0539421
88.5979,0.0588435
88.6767,0.0401636
88.7555,0.0400658
88.8343,0.0629375
88.9131,0.0667912
88.9919,0.0627008
89.0706,0.0581821
89.1494,0.0394511
89.2282,0.039274
89.307,0.0467537
89.3858,0.0388099
89.4645,0.052164
89.5433,0.0460016
89.6221,0.0566347
89.7009,0.0513999
89.7797,0.0511464
89.8585,0.0508945
89.9372,0.0506444
90.016,0.0597648
90.0948,0.07053
90.1736,0.0872623
90.2524,0.0791237
90.3311,0.0788891
90.4099,0.0786588
90.4887,0.0934233
90.5675,0.0691385
90.6463,0.065528
90.7251,0.057704
90.8038,0.0481328
90.8826,0.0479365
90.9614,0.0341404
91.0402,0.0525455
91.119,0.0523711
91.1977,0.0150304
91.2765,0.0564343
91.3553,0.0763692
91.4341,0.0145821
91.5129,0.0599795
91.5916,0.0669007
91.6704,0.0758623
91.7492,0.0698743
91.828,0.0697815
91.9068,0.0665097
91.9856,0.0834116
92.0643,0.100984
92.1431,0.0926097
92.2219,0.117199
92.3007,0.104738
92.3795,0.132675
92.4582,0.134109
92.537,0.165794
92.6158,0.158834
92.6946,0.123649
92.7734,0.102859
92.8522,0.0989385
92.9309,0.0782023
93.0097,0.0630546
93.0885,0.0928091
93.1673,0.0784208
93.2461,0.0512993
93.3248,0.0405122
93.4036,0.063513
93.4824,0.0732323
93.5612,0.0671539
93.64,0.0562787
93.7188,0.0520336
93.7975,0.0521837
93.8763,0.0473604
93.9551,0.0475243
94.0339,0.0610295
94.1127,0.0419628
94.1914,0.0421444
94.2702,0.0346322
94.349,0.0654135
94.4278,0.0579946
94.5066,0.0621614
94.5854,0.0623649
94.6641,0.0433288
94.7429,0.0544265
94.8217,0.0546386
94.9005,0.0548528
94.9793,0.0364816
95.058,0.0636408
95.1368,0.0598925
95.2156,0.0507435
95.2944,0.0603315
95.3732,0.0452753
95.452,0.0514018
95.5307,0.0565973
95.6095,0.0196274
95.6883,0.0613805
95.7671,0.0571762
95.8459,0.0523767
95.9246,0.038949
96.0034,0.0205394
96.0822,0.0529081
96.161,0.0471686
96.2398,0.0396284
96.3186,0.0533866
96.3973,0.058514
96.4761,0.0536776
96.5549,0.0479096
96.6337,0.0480386
96.7125,0.0481542
96.7912,0.0541696
96.87,0.0636425
96.9488,0.0543754
97.0276,0.0594518
97.1064,0.0678958
97.1851,0.041036
97.2639,0.0717032
97.3427,0.0488881
97.4215,0.0598509
97.5003,0.0599244
97.5791,0.0491082
97.6578,0.0600667
97.7366,0.078723
97.8154,0.0552239
97.8942,0.0493842
97.973,0.0553597
98.0517,0.0647954
98.1305,0.0554941
98.2093,0.0791281
98.2881,0.068962
98.3669,0.0690281
98.4457,0.0557589
98.5244,0.0422178
98.6032,0.0608699
98.682,0.0692886
98.7608,0.0424099
98.8396,0.0238853
98.9183,0.0502324
98.9971,0.0655662
99.0759,0.0695881
99.1547,0.042699
99.2335,0.0504486
99.3123,0.0427982
99.391,0.0614324
99.4698,0.0243028
99.5486,0.0565347
99.6274,0.0615443
99.7062,0.0699209
99.7849,0.0566026
99.8637,0.0430079
99.9425,0.0430163
100.021,0.0566264
100.1,0.0735985
100.179,0.0565806
100.258,0.0658928
100.336,0.0614364
100.415,0.0657463
100.494,0.0696273
100.573,0.0731805
100.652,0.0238841
100.73,0.0559141
100.809,0.0557124
100.888,0.0604747
100.967,0.0602496
101.045,0.0644061
101.124,0.0488931
101.203,0.0545541
101.282,0.0592763
101.361,0.0590129
101.439,0.0215754
101.518,0.0738856
101.597,0.0210529
101.676,0.0623568
101.754,0.0527333
101.833,0.0618495
101.912,0.0572134
101.991,0.0569695
102.07,0.0517498
102.148,0.0608838
102.227,0.0606552
102.306,0.0714428
102.385,0.0372412
102.464,0.0639734
102.542,0.0554162
102.621,0.0502406
102.7,0.0704318
102.779,0.0592423
102.857,0.0437955
102.936,0.0628762
103.015,0.0729554
103.094,0.0356373
103.173,0.0785622
103.251,0.0784374
103.33,0.0538503
103.409,0.0753489
103.488,0.0884643
103.566,0.0930291
103.645,0.0973381
103.724,0.097275
103.803,0.103384
103.882,0.109097
103.96,0.122905
104.039,0.121254
104.118,0.122875
104.197,0.116196
104.276,0.103294
104.354,0.0949932
104.433,0.0805549
104.512,0.0805976
104.591,0.0688351
104.669,0.0833425
104.748,0.0807859
104.827,0.0620094
104.906,0.0691443
104.985,0.072434
105.063,0.0430683
105.142,0.0660772
105.221,0.0662036
105.3,0.0587232
105.378,0.0628323
105.457,0.0546273
105.536,0.0701821
105.615,0.0669502
105.694,0.0595054
105.772,0.0503134
105.851,0.0368886
105.93,0.0556632
106.009,0.0642105
106.087,0.0680558
106.166,0.0512746
106.245,0.0564611
106.324,0.0380838
106.403,0.0519038
106.481,0.0571007
106.56,0.0617079
106.639,0.0389549
106.718,0.0621541
106.797,0.0579924
106.875,0.0532399
106.954,0.0584496
107.033,0.0215058
107.112,0.0743094
107.19,0.0711458
107.269,0.0713778
107.348,0.0639943
107.427,0.0598356
107.506,0.055082
107.584,0.0231121
107.663,0.041915
107.742,0.0650914
107.821,0.0500045
107.899,0.0654637
107.978,0.0562752
108.057,0.0697858
108.136,0.0659904
108.215,0.070122
108.293,0.0433286
108.372,0.0434565
108.451,0.0249851
108.53,0.0572902
108.608,0.0252038
108.687,0.0515916
108.766,0.0516857
108.845,0.0626614
108.924,0.0441588
109.002,0.0442422
109.081,0.0520236
109.16,0.0521045
109.239,0.0521816
109.318,0.0581606
109.396,0.0523197
109.475,0.0632727
109.554,0.0753393
109.633,0.0525108
109.711,0.0584786
109.79,0.0449297
109.869,0.0449861
109.948,0.0719837
110.027,0.0587042
110.105,0.0681279
110.184,0.0266209
110.263,0.0638495
110.342,0.0682908
110.42,0.0530675
110.499,0.0683954
110.578,0.0684456
110.657,0.0269296
110.736,0.0269704
110.814,0.0641813
110.893,0.0642148
110.972,0.0592655
111.051,0.0592948
111.13,0.0271262
111.208,0.0534288
111.287,0.0643237
111.366,0.0593451
111.445,0.0593449
111.523,0.0534342
111.602,0.0643154
111.681,0.0271315
111.76,0.0534044
111.839,0.0642691
111.917,0.0592489
111.996,0.0455897
112.075,0.0455316
112.154,0.0590755
112.232,0.0530988
112.311,0.0530246
112.39,0.0588534
112.469,0.0637428
112.548,0.052742
112.626,0.0718537
112.705,0.0677484
112.784,0.0676065
112.863,0.063073
112.941,0.0712786
113.02,0.051878
113.099,0.0439998
113.178,0.0623812
113.257,0.0249854
113.335,0.0619329
113.414,0.0617034
113.493,0.050583
113.572,0.0656218
113.651,0.060983
113.729,0.0557323
113.808,0.0554495
113.887,0.0415557
113.966,0.0598532
114.044,0.0223856
114.123,0.0483669
114.202,0.0217529
114.281,0.0669336
114.36,0.0582232
114.438,0.0578668
114.517,0.0525316
114.596,0.0462715
114.675,0.0382216
114.753,0.0514815
114.832,0.0561184
114.911,0.050799
114.99,0.0445575
115.069,0.0634715
115.147,0.0591816
115.226,0.0358913
115.305,0.0695671
115.384,0.0538675
115.463,0.0349901
115.541,0.0686926
115.62,0.0530185
115.699,0.0341682
115.778,0.0525
115.856,0.0606091
115.935,0.0674148
116.014,0.0637923
116.093,0.0559613
116.172,0.0758408
116.25,0.055563
116.329,0.078207
116.408,0.0662222
116.487,0.0986697
116.565,0.0899849
116.644,0.102357
116.723,0.102238
116.802,0.107767
116.881,0.10008
116.959,0.112913
117.038,0.12733
117.117,0.101839
117.196,0.116146
117.274,0.128706
117.353,0.134499
117.432,0.117757
117.511,0.109205
117.59,0.0770336
117.668,0.0846685
117.747,0.0958518
117.826,0.0959101
117.905,0.091714
117.984,0.0655083
118.062,0.0655992
118.141,0.0688893
118.22,0.0548007
118.299,0.0505328
118.377,0.0550493
118.456,0.0322113
118.535,0.0137688
118.614,0.0664931
118.693,0.0556414
118.771,0.0464379
118.85,0.083961
118.929,0.0601184
119.008,0.0639458
119.086,0.0521262
119.165,0.0677102
119.244,0.067898
119.323,0.0610443
119.402,0.0612315
119.48,0.0530413
119.559,0.0422561
119.638,0.0531719
119.717,0.0345685
119.795,0.0531261
119.874,0.0574733
119.953,0.0530124
119.992,0.0479744