File: DPhil-projects/SIBC StrucMag/processed_XRD_spectra/SuNAM21Gd-SM2a_processed.csv
Angle,Intensity
5.01057,0.104081
5.08935,0.0687658
5.16813,0.0846213
5.24691,0.101374
5.32569,0.069999
5.40447,0.106132
5.48326,0.0987114
5.56204,0.0758841
5.64082,0.0785864
5.7196,0.0856136
5.79838,0.0903527
5.87716,0.0778247
5.95595,0.0783348
6.03473,0.0765968
6.11351,0.10267
6.19229,0.082155
6.27107,0.0976633
6.34985,0.09615
6.42864,0.0882173
6.50742,0.0972933
6.5862,0.108038
6.66498,0.112566
6.74376,0.0794118
6.82254,0.0954798
6.90133,0.129483
6.98011,0.113067
7.05889,0.109733
7.13767,0.118244
7.21645,0.0965178
7.29523,0.151992
7.37402,0.154339
7.4528,0.245007
7.53158,0.349604
7.61036,0.195362
7.68914,0.0983998
7.76792,0.0924737
7.84671,0.0997935
7.92549,0.0509446
8.00427,0.0757058
8.08305,0.108327
8.16183,0.0960155
8.24061,0.0875381
8.3194,0.0785788
8.39818,0.066386
8.47696,0.0849405
8.55574,0.0567121
8.63452,0.0814974
8.7133,0.0771826
8.79209,0.0804613
8.87087,0.0837038
8.94965,0.0688119
9.02843,0.0826719
9.10721,0.107025
9.186,0.0790145
9.26478,0.0898466
9.34356,0.0611362
9.42234,0.083777
9.50112,0.084495
9.5799,0.0662003
9.65869,0.102961
9.73747,0.0865346
9.81625,0.108828
9.89503,0.0798981
9.97381,0.0634795
10.0526,0.0837589
10.1314,0.0869629
10.2102,0.079537
10.2889,0.0827953
10.3677,0.0805923
10.4465,0.0726421
10.5253,0.0815248
10.6041,0.095099
10.6828,0.0768535
10.7616,0.126137
10.8404,0.0805082
10.9192,0.078097
10.998,0.0946205
11.0768,0.0975368
11.1555,0.0611588
11.2343,0.0851567
11.3131,0.0855283
11.3919,0.0964802
11.4707,0.0889828
11.5494,0.0920212
11.6282,0.0870199
11.707,0.0669429
11.7858,0.0822069
11.8646,0.079725
11.9434,0.0583162
12.0221,0.104537
12.1009,0.0656632
12.1797,0.0594623
12.2585,0.0564255
12.3373,0.106076
12.416,0.0880788
12.4948,0.114167
12.5736,0.0679949
12.6524,0.0746687
12.7312,0.100414
12.81,0.0900592
12.8887,0.0985948
12.9675,0.0822865
13.0463,0.104613
13.1251,0.0770948
13.2039,0.0864331
13.2826,0.108395
13.3614,0.0843523
13.4402,0.0724852
13.519,0.0851969
13.5978,0.0856232
13.6766,0.0946334
13.7553,0.0676112
13.8341,0.0537413
13.9129,0.0579175
13.9917,0.0907101
14.0705,0.069365
14.1492,0.0944571
14.228,0.0800171
14.3068,0.121455
14.3856,0.0529912
14.4644,0.087516
14.5432,0.0786601
14.6219,0.058232
14.7007,0.0729997
14.7795,0.076799
14.8583,0.0928065
14.9371,0.112614
15.0158,0.107799
15.0946,0.0942255
15.1734,0.072408
15.2522,0.0657449
15.331,0.101439
15.4097,0.0901382
15.4885,0.0906241
15.5673,0.0911118
15.6461,0.103386
15.7249,0.0792303
15.8037,0.10437
15.8824,0.0899767
15.9612,0.10536
16.04,0.0812106
16.1188,0.0850425
16.1976,0.0887931
16.2763,0.0684048
16.3551,0.0960726
16.4339,0.0902966
16.5127,0.111669
16.5915,0.0777769
16.6703,0.0918063
16.749,0.0823022
16.8278,0.0959827
16.9066,0.0867144
16.9854,0.0608558
17.0642,0.10946
17.1429,0.0738364
17.2217,0.0851814
17.3005,0.0668806
17.3793,0.0992444
17.4581,0.0964592
17.5369,0.10911
17.6156,0.0836486
17.6944,0.0839942
17.7732,0.0946048
17.852,0.0772939
17.9308,0.0849761
18.0095,0.0852745
18.0883,0.0743023
18.1671,0.0783859
18.2459,0.0785856
18.3247,0.089659
18.4035,0.0669184
18.4822,0.0828559
18.561,0.112443
18.6398,0.0584684
18.7186,0.0715725
18.7974,0.0673633
18.8761,0.0830196
18.9549,0.0670957
19.0337,0.0863356
19.1125,0.0931047
19.1913,0.0859761
19.2701,0.0745364
19.3488,0.0890425
19.4276,0.11107
19.5064,0.0655794
19.5852,0.0773346
19.664,0.0807883
19.7427,0.091061
19.8215,0.0725713
19.9003,0.0721901
19.9791,0.0864784
20.0579,0.085963
20.1367,0.107723
20.2154,0.0740074
20.2942,0.0655981
20.373,0.0766752
20.4518,0.0932951
20.5306,0.0756199
20.6093,0.0674963
20.6881,0.0782125
20.7669,0.0740846
20.8457,0.0874898
20.9245,0.0529923
21.0032,0.0832081
21.082,0.104543
21.1608,0.0641418
21.2396,0.0749512
21.3184,0.0709218
21.3972,0.0741549
21.4759,0.105388
21.5547,0.0622284
21.6335,0.118293
21.7123,0.112705
21.7911,0.0860927
21.8698,0.125099
21.9486,0.13456
22.0274,0.11443
22.1062,0.162642
22.185,0.149887
22.2638,0.191087
22.3425,0.227775
22.4213,0.288239
22.5001,0.377631
22.5789,0.543212
22.6577,0.618175
22.7364,0.569124
22.8152,0.506582
22.894,0.362678
22.9728,0.307678
23.0516,0.233373
23.1304,0.192265
23.2091,0.190788
23.2879,0.180024
23.3667,0.186058
23.4455,0.12195
23.5243,0.12497
23.603,0.12799
23.6818,0.0860342
23.7606,0.107934
23.8394,0.119495
23.9182,0.100463
23.997,0.0818308
24.0757,0.110622
24.1545,0.13504
24.2333,0.106387
24.3121,0.107202
24.3909,0.119384
24.4696,0.0966291
24.5484,0.0803768
24.6272,0.110737
24.706,0.099395
24.7848,0.109677
24.8636,0.0725901
24.9423,0.0776042
25.0211,0.082495
25.0999,0.0835304
25.1787,0.0845799
25.2575,0.0437433
25.3362,0.0940892
25.415,0.111878
25.4938,0.0997912
25.5726,0.0900076
25.6514,0.0832295
25.7302,0.0995184
25.8089,0.0449212
25.8877,0.0682562
25.9665,0.0908793
26.0453,0.0593908
26.1241,0.0799013
26.2028,0.100767
26.2816,0.09776
26.3604,0.0677123
26.4392,0.0683698
26.518,0.107098
26.5967,0.0746261
26.6755,0.115204
26.7543,0.0850838
26.8331,0.0763148
26.9119,0.102554
26.9907,0.0910248
27.0694,0.082583
27.1482,0.107625
27.227,0.0681116
27.3058,0.115463
27.3846,0.0970419
27.4633,0.0744883
27.5421,0.112899
27.6209,0.0427535
27.6997,0.0895834
27.7785,0.0851941
27.8573,0.085336
27.936,0.0900061
28.0148,0.0583064
28.0936,0.0220109
28.1724,0.0902707
28.2512,0.0515373
28.3299,0.0857496
28.4087,0.114021
28.4875,0.145591
28.5663,0.166762
28.6451,0.13376
28.7239,0.110308
28.8026,0.0757961
28.8814,0.0808242
28.9602,0.0583141
29.039,0.0703541
29.1178,0.102597
29.1965,0.0582589
29.2753,0.106432
29.3541,0.0702928
29.4329,0.094374
29.5117,0.0985317
29.5905,0.0854795
29.6692,0.0807026
29.748,0.0854836
29.8268,0.0807141
29.9056,0.0985519
29.9844,0.0756909
30.0631,0.094424
30.1419,0.0986127
30.2207,0.127404
30.2995,0.110288
30.3783,0.139765
30.4571,0.139809
30.5358,0.117564
30.6146,0.106736
30.6934,0.1211
30.7722,0.0649563
30.851,0.11067
30.9297,0.0813082
31.0085,0.110827
31.0873,0.103309
31.1661,0.111005
31.2449,0.0816643
31.3237,0.0865436
31.4024,0.0593852
31.4812,0.0867632
31.56,0.122107
31.6388,0.122229
31.7176,0.108051
31.7963,0.0774332
31.8751,0.104453
31.9539,0.0964223
32.0327,0.0829046
32.1115,0.0878302
32.1903,0.0669995
32.269,0.0833614
32.3478,0.0540829
32.4266,0.0973456
32.5054,0.0886263
32.5842,0.105851
32.6629,0.0791382
32.7417,0.0470368
32.8205,0.0938591
32.8993,0.0983781
32.9781,0.110594
33.0568,0.110774
33.1356,0.110956
33.2144,0.0803887
33.2932,0.0903992
33.372,0.0695989
33.4508,0.0755557
33.5295,0.0488225
33.6083,0.0758548
33.6871,0.075963
33.7659,0.104314
33.8447,0.0913565
33.9234,0.0641773
34.0022,0.0573096
34.081,0.0868234
34.1598,0.0764535
34.2386,0.0644179
34.3174,0.064411
34.3961,0.0706722
34.4749,0.0961718
34.5537,0.0817679
34.6325,0.116217
34.7113,0.0763029
34.79,0.095993
34.8688,0.0913836
34.9476,0.0571003
35.0264,0.0760394
35.1052,0.126398
35.184,0.0812697
35.2627,0.0955618
35.3415,0.0567145
35.4203,0.0997152
35.4991,0.0907218
35.5779,0.0696237
35.6566,0.0950302
35.7354,0.0693777
35.8142,0.0991051
35.893,0.0852818
35.9718,0.114547
36.0506,0.0897121
36.1293,0.0940834
36.2081,0.0939125
36.2869,0.0682176
36.3657,0.0792076
36.4445,0.0790463
36.5232,0.073512
36.602,0.088566
36.6808,0.0785926
36.7596,0.0730759
36.8384,0.072944
36.9172,0.0880254
36.9959,0.0669269
37.0747,0.0535884
37.1535,0.0829295
37.2323,0.0777923
37.3111,0.112205
37.3898,0.115765
37.4686,0.115713
37.5474,0.0873888
37.6262,0.0775342
37.705,0.129159
37.7838,0.115634
37.8625,0.1528
37.9413,0.155539
38.0201,0.244133
38.0989,0.346428
38.1777,0.446709
38.2564,0.541348
38.3352,0.553987
38.414,0.516427
38.4928,0.400693
38.5716,0.328121
38.6503,0.260174
38.7291,0.201478
38.8079,0.162132
38.8867,0.13389
38.9655,0.127687
39.0443,0.110286
39.123,0.0553993
39.2018,0.118162
39.2806,0.114814
39.3594,0.0856644
39.4382,0.107797
39.5169,0.0812247
39.5957,0.104423
39.6745,0.0765006
39.7533,0.100932
39.8321,0.0651316
39.9109,0.0829275
39.9896,0.0883438
40.0684,0.0592783
40.1472,0.0728889
40.226,0.0732729
40.3048,0.0673791
40.3835,0.0529349
40.4623,0.0802288
40.5411,0.0806281
40.6199,0.0752512
40.6987,0.075655
40.7775,0.0872145
40.8562,0.0553415
40.935,0.0705686
41.0138,0.0829975
41.0926,0.0833474
41.1714,0.0779083
41.2501,0.0992225
41.3289,0.0843367
41.4077,0.089995
41.4865,0.084818
41.5653,0.0728671
41.6441,0.0903533
41.7228,0.095424
41.8016,0.0792176
41.8804,0.0954021
41.9592,0.0486835
42.038,0.0848834
42.1167,0.0790114
42.1955,0.0725855
42.2743,0.0724156
42.3531,0.0480393
42.4319,0.0945219
42.5107,0.123737
42.5894,0.146919
42.6682,0.123231
42.747,0.16645
42.8258,0.174052
42.9046,0.136325
42.9833,0.118417
43.0621,0.114281
43.1409,0.128758
43.2197,0.0868566
43.2985,0.0964141
43.3773,0.100687
43.456,0.100417
43.5348,0.0908254
43.6136,0.166143
43.6924,0.143146
43.7712,0.119442
43.8499,0.111558
43.9287,0.0843874
44.0075,0.0840787
44.0863,0.0783609
44.1651,0.0833687
44.2438,0.0928067
44.3226,0.0714227
44.4014,0.0647271
44.4802,0.0705813
44.559,0.0701446
44.6378,0.0906915
44.7165,0.0804308
44.7953,0.094375
44.8741,0.0742043
44.9529,0.0547805
45.0317,0.0838128
45.1104,0.0927379
45.1892,0.11247
45.268,0.100486
45.3468,0.104133
45.4256,0.0819546
45.5044,0.076573
45.5831,0.0906293
45.6619,0.159222
45.7407,0.153652
45.8195,0.223944
45.8983,0.2649
45.977,0.381104
46.0558,0.466141
46.1346,0.662568
46.2134,0.827377
46.2922,0.998756
46.371,0.970283
46.4497,0.794228
46.5285,0.631552
46.6073,0.434104
46.6861,0.342559
46.7649,0.202788
46.8436,0.167131
46.9224,0.125421
47.0012,0.118873
47.08,0.143575
47.1588,0.0837775
47.2376,0.125682
47.3163,0.125795
47.3951,0.101171
47.4739,0.101319
47.5527,0.10535
47.6315,0.0891535
47.7102,0.0575415
47.789,0.0751917
47.8678,0.0754185
47.9466,0.0985359
48.0254,0.0647572
48.1042,0.0439028
48.1829,0.0862825
48.2617,0.0767419
48.3405,0.059601
48.4193,0.0599068
48.4981,0.0776582
48.5768,0.0923505
48.6556,0.0783058
48.7344,0.0930096
48.8132,0.0789741
48.892,0.093686
48.9708,0.0742802
49.0495,0.0556167
49.1283,0.0629143
49.2071,0.118814
49.2859,0.0861002
49.3647,0.0639573
49.4434,0.116225
49.5222,0.0820727
49.601,0.0712373
49.6798,0.0504082
49.7586,0.08295
49.8374,0.0778293
49.9161,0.102172
49.9949,0.102417
50.0737,0.0839411
50.1525,0.0841694
50.2313,0.0987639
50.31,0.0846134
50.3888,0.119322
50.4676,0.099425
50.5464,0.0608856
50.6252,0.0854913
50.7039,0.0803315
50.7827,0.124039
50.8615,0.150069
50.9403,0.134744
51.0191,0.0963926
51.0979,0.105479
51.1766,0.0625721
51.2554,0.0759925
51.3342,0.0923822
51.413,0.0763476
51.4918,0.0632578
51.5705,0.0633626
51.6493,0.0928724
51.7281,0.070427
51.8069,0.110758
51.8857,0.0878779
51.9645,0.0462234
52.0432,0.0824074
52.122,0.0764949
52.2008,0.0763196
52.2796,0.0819084
52.3584,0.0969192
52.4371,0.0967233
52.5159,0.101072
52.5947,0.0621206
52.6735,0.0688798
52.7523,0.100502
52.8311,0.0957762
52.9098,0.0746156
52.9886,0.0681607
53.0674,0.0854322
53.1462,0.0798949
53.225,0.0676819
53.3037,0.119463
53.3825,0.079459
53.4613,0.0990786
53.5401,0.0944139
53.6189,0.0895244
53.6977,0.094198
53.7764,0.0893266
53.8552,0.0788133
53.934,0.0787377
54.0128,0.106926
54.0916,0.118482
54.1703,0.159211
54.2491,0.156417
54.3279,0.195888
54.4067,0.241561
54.4855,0.25891
54.5643,0.28752
54.643,0.279877
54.7218,0.253859
54.8006,0.198129
54.8794,0.153654
54.9582,0.118487
55.0369,0.110936
55.1157,0.122227
55.1945,0.0788053
55.2733,0.0788813
55.3521,0.0731866
55.4309,0.0942587
55.5096,0.107403
55.5884,0.0792481
55.6672,0.0735761
55.746,0.0848408
55.8248,0.0738015
55.9035,0.0796982
55.9823,0.0950269
56.0611,0.0853268
56.1399,0.108334
56.2187,0.0906424
56.2974,0.0857284
56.3762,0.100239
56.455,0.120496
56.5338,0.0861502
56.6126,0.0862945
56.6914,0.0620539
56.7701,0.0916398
56.8489,0.0917893
56.9277,0.0868895
57.0065,0.0968698
57.0853,0.0455646
57.164,0.0761967
57.2428,0.118259
57.3216,0.0460373
57.4004,0.08783
57.4792,0.0826155
57.558,0.0979861
57.6367,0.0639383
57.7155,0.0773397
57.7943,0.0984943
57.8731,0.0834626
57.9519,0.0940671
58.0306,0.0891948
58.1094,0.0992034
58.1882,0.0946093
58.267,0.0843663
58.3458,0.104303
58.4246,0.0999491
58.5033,0.100141
58.5821,0.0793519
58.6609,0.0584278
58.7397,0.109613
58.8185,0.0799447
58.8972,0.101129
58.976,0.0965537
59.0548,0.0742686
59.1336,0.0744731
59.2124,0.0746785
59.2912,0.0811671
59.3699,0.1069
59.4487,0.0977857
59.5275,0.0685519
59.6063,0.11185
59.6851,0.0933293
59.7638,0.0985666
59.8426,0.0614194
59.9214,0.103683
60.0002,0.093999
60.079,0.0766961
60.1578,0.0698756
60.2365,0.0832288
60.3153,0.0701094
60.3941,0.0945943
60.4729,0.0892891
60.5517,0.062441
60.6304,0.113468
60.7092,0.0894118
60.788,0.0531868
60.8668,0.0894621
60.9456,0.0774118
61.0244,0.104673
61.1031,0.0773915
61.1819,0.0948097
61.2607,0.0773499
61.3395,0.10459
61.4183,0.0835797
61.497,0.0624288
61.5758,0.0892902
61.6546,0.0529954
61.7334,0.0834285
61.8122,0.0891626
61.8909,0.108868
61.9697,0.104282
62.0485,0.0944111
62.1273,0.0832136
62.2061,0.0768891
62.2849,0.0831305
62.3636,0.108616
62.4424,0.0698178
62.5212,0.0887882
62.6,0.117004
62.6788,0.0829348
62.7575,0.0617783
62.8363,0.0765798
62.9151,0.103811
62.9939,0.0695622
63.0727,0.0939167
63.1515,0.0989359
63.2302,0.103683
63.309,0.0938252
63.3878,0.0615218
63.4666,0.0883919
63.5454,0.0825881
63.6241,0.103546
63.7029,0.0987443
63.7817,0.0762324
63.8605,0.0936478
63.9393,0.0761884
64.0181,0.0761676
64.0968,0.107957
64.1756,0.093566
64.2544,0.0761095
64.3332,0.0823741
64.412,0.112224
64.4907,0.0823393
64.5695,0.0934776
64.6483,0.0396361
64.7271,0.0880672
64.8059,0.088051
64.8847,0.0759745
64.9634,0.0984456
65.0422,0.0689882
65.121,0.0610792
65.1998,0.0100681
65.2786,0.0821486
65.3573,0.0821167
65.4361,0.0516058
65.5149,0.0820461
65.5937,0.0515314
65.6725,0.0931219
65.7513,0.115956
65.83,0.0686488
65.9088,0.0876149
65.9876,0.0979996
66.0664,0.0754673
66.1452,0.102689
66.2239,0.0816625
66.3027,0.0816185
66.3815,0.107101
66.4603,0.102513
66.5391,0.0603656
66.6179,0.106967
66.6966,0.092549
66.7754,0.0750641
66.8542,0.0601774
66.933,0.10677
67.0118,0.102167
67.0905,0.102106
67.1693,0.081059
67.2481,0.110861
67.3269,0.101907
67.4057,0.0920073
67.4845,0.0865518
67.5632,0.0918431
67.642,0.0968026
67.7208,0.0967092
67.7996,0.10139
67.8784,0.0591868
67.9571,0.0802039
68.0359,0.109968
68.1147,0.0799942
68.1935,0.0666539
68.2723,0.0665443
68.351,0.0854433
68.4298,0.100536
68.5086,0.104965
68.5874,0.0904767
68.6662,0.100187
68.745,0.0728016
68.8237,0.0847369
68.9025,0.120732
68.9813,0.0898456
69.0601,0.0785493
69.1389,0.103932
69.2176,0.0840361
69.2964,0.0943148
69.3752,0.103478
69.454,0.0889353
69.5328,0.103126
69.6116,0.0562929
69.6903,0.102748
69.7691,0.0828025
69.8479,0.0978084
69.9267,0.0766193
70.0055,0.0973877
70.0842,0.081964
70.163,0.062736
70.2418,0.0967333
70.3206,0.117438
70.3994,0.0690361
70.4782,0.0960885
70.5569,0.0806721
70.6357,0.108718
70.7145,0.0954632
70.7933,0.112316
70.8721,0.0902842
70.9508,0.0994093
71.0296,0.0898969
71.1084,0.0990302
71.1872,0.0895263
71.266,0.0842972
71.3448,0.0787461
71.4235,0.0839554
71.5023,0.0981638
71.5811,0.066197
71.6599,0.0723279
71.7387,0.106214
71.8174,0.0831972
71.8962,0.109947
71.975,0.101649
72.0538,0.0971867
72.1326,0.11345
72.2114,0.101306
72.2901,0.120604
72.3689,0.157662
72.4477,0.116798
72.5265,0.127283
72.6053,0.0872057
72.684,0.0964593
72.7628,0.127081
72.8416,0.0918015
72.9204,0.10881
72.9992,0.0765087
73.078,0.112602
73.1567,0.0818251
73.2355,0.0764264
73.3143,0.0868399
73.3931,0.0868312
73.4719,0.0916054
73.5506,0.0764029
73.6294,0.0643512
73.7082,0.0818029
73.787,0.070667
73.8658,0.0574592
73.9445,0.0496004
74.0233,0.100622
74.1021,0.0707921
74.1809,0.076612
74.2597,0.104913
74.3385,0.0820861
74.4172,0.0965113
74.496,0.0965684
74.5748,0.0920849
74.6536,0.154828
74.7324,0.187618
74.8111,0.160429
74.8899,0.105402
74.9687,0.105475
75.0475,0.0410412
75.1263,0.0504741
75.2051,0.117316
75.2838,0.0879573
75.3626,0.0655494
75.4414,0.0776914
75.5202,0.106028
75.599,0.101948
75.6777,0.0721639
75.7565,0.0590164
75.8353,0.0978599
75.9141,0.0724185
75.9929,0.0662211
76.0717,0.0783667
76.1504,0.0784514
76.2292,0.0839109
76.308,0.0890385
76.3868,0.0984309
76.4656,0.0939548
76.5443,0.118679
76.6231,0.0940795
76.7019,0.0731523
76.7807,0.0843507
76.8595,0.0894295
76.9383,0.0843981
77.017,0.0790366
77.0958,0.0790496
77.1746,0.0844364
77.2534,0.111323
77.3322,0.107311
77.4109,0.0790404
77.4897,0.10311
77.5685,0.0669358
77.6473,0.0987206
77.7261,0.0304983
77.8049,0.0789187
77.8836,0.0842661
77.9624,0.0892815
78.0412,0.111075
78.12,0.107027
78.1988,0.106986
78.2775,0.0984373
78.3563,0.0983932
78.4351,0.0595895
78.5139,0.093759
78.5927,0.0937127
78.6715,0.0726812
78.7502,0.072629
78.829,0.0981
78.9078,0.0887214
78.9866,0.106488
79.0654,0.0979215
79.1441,0.0834877
79.2229,0.0659842
79.3017,0.106226
79.3805,0.0778891
79.4593,0.0657409
79.538,0.0719314
79.6168,0.0928184
79.6956,0.0654541
79.7744,0.0971617
79.8532,0.0826812
79.932,0.0876132
80.0107,0.0824389
80.0895,0.105192
80.1683,0.096563
80.2471,0.104946
80.3259,0.0765711
80.4046,0.0706743
80.4834,0.057325
80.5622,0.081597
80.641,0.0703293
80.7198,0.100088
80.7986,0.0863187
80.8773,0.0757871
80.9561,0.0861159
81.0349,0.0698143
81.1137,0.0755004
81.1925,0.118904
81.2712,0.0950801
81.35,0.085682
81.4288,0.080559
81.5076,0.0693371
81.5864,0.118543
81.6652,0.0990883
81.7439,0.0853765
81.8227,0.103159
81.9015,0.107128
81.9803,0.0852647
82.0591,0.138106
82.1378,0.103048
82.2166,0.0945311
82.2954,0.121786
82.3742,0.0988689
82.453,0.103041
82.5318,0.0852293
82.6105,0.0945711
82.6893,0.107111
82.7681,0.0989735
82.8469,0.0691453
82.9257,0.118459
83.0044,0.0902259
83.0832,0.0855062
83.162,0.103395
83.2408,0.0805868
83.3196,0.0695052
83.3984,0.115227
83.4771,0.103699
83.5559,0.0809092
83.6347,0.107884
83.7135,0.0998095
83.7923,0.0637581
83.871,0.104175
83.9498,0.100117
84.0286,0.112263
84.1074,0.0914524
84.1862,0.0817381
84.265,0.0495788
84.3437,0.100683
84.4225,0.0820893
84.5013,0.08726
84.5801,0.116819
84.6589,0.0650139
84.7376,0.0825707
84.8164,0.0773047
84.8952,0.0971554
84.974,0.0879309
85.0528,0.0928019
85.1316,0.083065
85.2103,0.09298
85.2891,0.113984
85.3679,0.110195
85.4467,0.0417537
85.5255,0.0885091
85.6042,0.0660931
85.683,0.0836026
85.7618,0.0782955
85.8406,0.0663047
85.9194,0.072656
85.9981,0.0785017
86.0769,0.0889981
86.1557,0.0840153
86.2345,0.0596957
86.3133,0.107027
86.3921,0.0667793
86.4708,0.0731288
86.5496,0.0789723
86.6284,0.0894653
86.7072,0.0844776
86.786,0.103252
86.8647,0.0846004
86.9435,0.0897111
87.0223,0.0990911
87.1011,0.107654
87.1799,0.0946575
87.2587,0.0899278
87.3374,0.0849202
87.4162,0.0993318
87.495,0.115748
87.5738,0.0994055
87.6526,0.0796863
87.7313,0.0606953
87.8101,0.123202
87.8889,0.0901397
87.9677,0.0739294
88.0465,0.0994485
88.1253,0.0901141
88.204,0.0900877
88.2828,0.052723
88.3616,0.0795757
88.4404,0.0795273
88.5192,0.0674145
88.5979,0.0794179
88.6767,0.107607
88.7555,0.0896978
88.8343,0.0895975
88.9131,0.0894887
88.9919,0.11121
89.0706,0.0985826
89.1494,0.0939198
89.2282,0.0423347
89.307,0.0594446
89.3858,0.0725363
89.4645,0.0661112
89.5433,0.0977774
89.6221,0.0930905
89.7009,0.0777419
89.7797,0.0829767
89.8585,0.109718
89.9372,0.0504177
90.016,0.0825518
90.0948,0.0824118
90.1736,0.0648351
90.2524,0.0405039
90.3311,0.104876
90.4099,0.0707096
90.4887,0.0961035
90.5675,0.100314
90.6463,0.123104
90.7251,0.169735
90.8038,0.150924
90.8826,0.122734
90.9614,0.0809849
91.0402,0.0995832
91.119,0.0858099
91.1977,0.0904795
91.2765,0.0805478
91.3553,0.0902759
91.4341,0.0854032
91.5129,0.055874
91.5916,0.0945459
91.6704,0.0851431
91.7492,0.098728
91.828,0.0897708
91.9068,0.114365
91.9856,0.0896421
92.0643,0.114247
92.1431,0.106591
92.2219,0.102539
92.3007,0.0846734
92.3795,0.152097
92.4582,0.110311
92.537,0.0939106
92.6158,0.110272
92.6946,0.106396
92.7734,0.0982211
92.8522,0.0982226
92.9309,0.0938884
93.0097,0.102407
93.0885,0.0741707
93.1673,0.0894003
93.2461,0.121233
93.3248,0.0940083
93.4036,0.0847276
93.4824,0.0895498
93.5612,0.0941434
93.64,0.0896543
93.7188,0.074508
93.7975,0.079949
93.8763,0.094388
93.9551,0.0626501
94.0339,0.0801629
94.1127,0.0802414
94.1914,0.0749455
94.2702,0.122039
94.349,0.0804952
94.4278,0.099298
94.5066,0.103554
94.5854,0.0994843
94.6641,0.0859182
94.7429,0.0907928
94.8217,0.0861146
94.9005,0.0700088
94.9793,0.0812649
95.058,0.100079
95.1368,0.0703134
95.2156,0.100284
95.2944,0.0572851
95.3732,0.0817724
95.452,0.0962433
95.5307,0.0917991
95.6095,0.100784
95.6883,0.0767932
95.7671,0.0768935
95.8459,0.0874227
95.9246,0.0875241
96.0034,0.0924032
96.0822,0.117167
96.161,0.0878323
96.2398,0.101599
96.3186,0.0586039
96.3973,0.0881479
96.4761,0.0778266
96.5549,0.102025
96.6337,0.102134
96.7125,0.097903
96.7912,0.0886934
96.87,0.102468
96.9488,0.102581
97.0276,0.0890335
97.1064,0.0518233
97.1851,0.0940428
97.2639,0.078955
97.3427,0.0790737
97.4215,0.0601839
97.5003,0.103405
97.5791,0.0991847
97.6578,0.0947635
97.7366,0.107936
97.8154,0.103896
97.8942,0.0678696
97.973,0.0904834
98.0517,0.0953862
98.1305,0.080307
98.2093,0.0746559
98.2881,0.0805602
98.3669,0.0749095
98.4457,0.100562
98.5244,0.0809348
98.6032,0.0914754
98.682,0.0915768
98.7608,0.091669
98.8396,0.0867037
98.9183,0.0966114
98.9971,0.0868511
99.0759,0.0815176
99.1547,0.0967461
99.2335,0.075777
99.3123,0.0919907
99.391,0.101312
99.4698,0.0757784
99.5486,0.0625266
99.6274,0.0966978
99.7062,0.0868009
99.7849,0.0917691
99.8637,0.0622439
99.9425,0.113423
100.021,0.0864419
100.1,0.0809629
100.179,0.100602
100.258,0.091156
100.336,0.0910145
100.415,0.0858142
100.494,0.0802849
100.573,0.0611228
100.652,0.0679194
100.73,0.0740497
100.809,0.0796753
100.888,0.0795241
100.967,0.089802
101.045,0.0792244
101.124,0.0942819
101.203,0.0941355
101.282,0.0667253
101.361,0.0728654
101.439,0.0889309
101.518,0.0935703
101.597,0.0592203
101.676,0.0660378
101.754,0.0779693
101.833,0.106099
101.912,0.0656627
101.991,0.088034
102.07,0.0926981
102.148,0.105639
102.227,0.0970293
102.306,0.101272
102.385,0.07131
102.464,0.10109
102.542,0.0966651
102.621,0.100929
102.7,0.0871955
102.779,0.0820793
102.857,0.0645821
102.936,0.10068
103.015,0.0962914
103.094,0.0917073
103.173,0.0706905
103.251,0.104695
103.33,0.112547
103.409,0.0817836
103.488,0.10866
103.566,0.119888
103.645,0.0706266
103.724,0.104671
103.803,0.123445
103.882,0.096211
103.96,0.112621
104.039,0.100623
104.118,0.104832
104.197,0.100719
104.276,0.108947
104.354,0.091954
104.433,0.109078
104.512,0.0822684
104.591,0.0921754
104.669,0.0922596
104.748,0.0713656
104.827,0.0969857
104.906,0.105589
104.985,0.0971853
105.063,0.105796
105.142,0.109912
105.221,0.0831407
105.3,0.0832559
105.378,0.0932014
105.457,0.0885443
105.536,0.0886663
105.615,0.08879
105.694,0.0936923
105.772,0.0890414
105.851,0.0939457
105.93,0.0788679
106.009,0.0942013
106.087,0.0791233
106.166,0.0792483
106.245,0.0793694
106.324,0.0848632
106.403,0.107852
106.481,0.0739288
106.56,0.112076
106.639,0.0951273
106.718,0.0679682
106.797,0.0905627
106.875,0.0744625
106.954,0.0907739
107.033,0.0908792
107.112,0.0536583
107.19,0.10475
107.269,0.095968
107.348,0.0862421
107.427,0.0961711
107.506,0.0810651
107.584,0.0963654
107.663,0.0964538
107.742,0.0917595
107.821,0.128419
107.899,0.105576
107.978,0.0967636
108.057,0.0758448
108.136,0.0696168
108.215,0.101476
108.293,0.0969794
108.372,0.0970226
108.451,0.0818559
108.53,0.0970941
108.608,0.0971166
108.687,0.0629128
108.766,0.087305
108.845,0.118057
108.924,0.097136
109.002,0.0698682
109.081,0.0698638
109.16,0.0761376
109.239,0.0550009
109.318,0.0872524
109.396,0.110103
109.475,0.10157
109.554,0.0697313
109.633,0.0921885
109.711,0.0871052
109.79,0.101444
109.869,0.0696013
109.948,0.0695684
110.027,0.0968013
110.105,0.0869412
110.184,0.0967371
110.263,0.0757227
110.342,0.086847
110.42,0.0756617
110.499,0.091838
110.578,0.109635
110.657,0.113614
110.736,0.0867037
110.814,0.0692398
110.893,0.0754974
110.972,0.0866284
111.051,0.0866054
111.13,0.0865834
111.208,0.105275
111.287,0.105256
111.366,0.0915749
111.445,0.117256
111.523,0.105203
111.602,0.0963027
111.681,0.0620735
111.76,0.113331
111.839,0.0962631
111.917,0.075269
111.996,0.0864138
112.075,0.0864045
112.154,0.0962238
112.232,0.0863882
112.311,0.0863811
112.39,0.100746
112.469,0.10074
112.548,0.100735
112.626,0.0809807
112.705,0.10923
112.784,0.10072
112.863,0.109221
112.941,0.0863366
113.02,0.0688844
113.099,0.109175
113.178,0.0808894
113.257,0.104943
113.335,0.0912393
113.414,0.0807653
113.493,0.0538115
113.572,0.0537389
113.651,0.0805525
113.729,0.0804642
113.808,0.0857486
113.887,0.0856489
113.966,0.112428
114.044,0.0854332
114.123,0.0951349
114.202,0.0995318
114.281,0.0993724
114.36,0.0432075
114.438,0.115427
114.517,0.0845172
114.596,0.0789804
114.675,0.0730453
114.753,0.102758
114.832,0.0785138
114.911,0.0837405
114.99,0.0724374
115.069,0.110331
115.147,0.0779285
115.226,0.072013
115.305,0.105911
115.384,0.0927321
115.463,0.0926065
115.541,0.0924856
115.62,0.0969133
115.699,0.0824308
115.778,0.105202
115.856,0.0920528
115.935,0.0767529
116.014,0.112791
116.093,0.096331
116.172,0.108767
116.25,0.100527
116.329,0.0763731
116.408,0.0867452
116.487,0.0866959
116.565,0.100316
116.644,0.104445
116.723,0.0815405
116.802,0.119633
116.881,0.0703529
116.959,0.086554
117.038,0.100219
117.117,0.091345
117.196,0.070381
117.274,0.0959345
117.353,0.0641603
117.432,0.0704862
117.511,0.0573056
117.59,0.0763748
117.668,0.0764427
117.747,0.116385
117.826,0.100694
117.905,0.0871249
117.984,0.100888
118.062,0.0711302
118.141,0.0712484
118.22,0.109414
118.299,0.0715103
118.377,0.0971806
118.456,0.101674
118.535,0.0929464
118.614,0.0416523
118.693,0.0978348
118.771,0.11053
118.85,0.0664028
118.929,0.0786643
119.008,0.0668163
119.086,0.0943023
119.165,0.0847068
119.244,0.0737964
119.323,0.09503
119.402,0.104174
119.48,0.0803554
119.559,0.0860154
119.638,0.0913583
119.717,0.0916611
119.795,0.101298
119.874,0.11414
119.953,0.0974264
119.992,0.0703365