File: DPhil-projects/SIBC StrucMag/processed_XRD_spectra/SuNAM21Gd-SM2c_processed.csv
Angle,Intensity
5.01057,0.0563428
5.08935,0.0770627
5.16813,0.0458135
5.24691,0.0446583
5.32569,0.0539263
5.40447,0.0595007
5.48326,0.0584491
5.56204,0.0920186
5.64082,0.0528864
5.7196,0.0446091
5.79838,0.0452047
5.87716,0.0402113
5.95595,0.0792704
6.03473,0.0541433
6.11351,0.0598919
6.19229,0.0855113
6.27107,0.090443
6.34985,0.0650678
6.42864,0.0705696
6.50742,0.0743705
6.5862,0.0718229
6.66498,0.0756325
6.74376,0.0746894
6.82254,0.0800305
6.90133,0.111858
6.98011,0.128873
7.05889,0.14018
7.13767,0.131398
7.21645,0.136834
7.29523,0.145619
7.37402,0.200428
7.4528,0.329158
7.53158,0.474168
7.61036,0.226473
7.68914,0.117263
7.76792,0.0985864
7.84671,0.0601535
7.92549,0.0532488
8.00427,0.0558933
8.08305,0.0712427
8.16183,0.0294639
8.24061,0.0673407
8.3194,0.0680528
8.39818,0.0651096
8.47696,0.0601582
8.55574,0.0466542
8.63452,0.0515861
8.7133,0.050196
8.79209,0.0529787
8.87087,0.0800045
8.94965,0.033961
9.02843,0.0484531
9.10721,0.0634781
9.186,0.0539006
9.26478,0.0626353
9.34356,0.0745828
9.42234,0.0489894
9.50112,0.0401947
9.5799,0.0882652
9.65869,0.0745774
9.73747,0.0485064
9.81625,0.0754274
9.89503,0.0559601
9.97381,0.0626484
10.0526,0.0431353
10.1314,0.0527832
10.2102,0.0881362
10.2889,0.0662414
10.3677,0.0625393
10.4465,0.0729179
10.5253,0.0673929
10.6041,0.0755935
10.6828,0.0619709
10.7616,0.0623497
10.8404,0.0539823
10.9192,0.0808582
10.998,0.0812324
11.0768,0.0456562
11.1555,0.0531845
11.2343,0.0624599
11.3131,0.0492012
11.3919,0.0715077
11.4707,0.0815847
11.5494,0.0595639
11.6282,0.0643034
11.707,0.051045
11.7858,0.0867637
11.8646,0.0517838
11.9434,0.0545389
12.0221,0.0724338
12.1009,0.0643562
12.1797,0.0690218
12.2585,0.0583582
12.3373,0.049078
12.416,0.0680091
12.4948,0.0594759
12.5736,0.0729783
12.6524,0.0733526
12.7312,0.0582629
12.81,0.0406977
12.8887,0.0702572
12.9675,0.0789447
13.0463,0.0621056
13.1251,0.0949292
13.2039,0.0605274
13.2826,0.0484189
13.3614,0.0487997
13.4402,0.0592847
13.519,0.0495636
13.5978,0.0387106
13.6766,0.0823719
13.7553,0.0722801
13.8341,0.0562726
13.9129,0.0615898
13.9917,0.0689873
14.0705,0.0623639
14.1492,0.0471962
14.228,0.0746022
14.3068,0.0749914
14.3856,0.0775469
14.4644,0.0735665
14.5432,0.046298
14.6219,0.0890269
14.7007,0.0747396
14.7795,0.0634369
14.8583,0.0921704
14.9371,0.0945031
15.0158,0.1024
15.0946,0.0852929
15.1734,0.0522792
15.2522,0.0657872
15.331,0.0611264
15.4097,0.0615098
15.4885,0.0618909
15.5673,0.0596511
15.6461,0.0487918
15.7249,0.063021
15.8037,0.073261
15.8824,0.0637535
15.9612,0.0739813
16.04,0.071952
16.1188,0.0648214
16.1976,0.0482831
16.2763,0.0705737
16.3551,0.0658765
16.4339,0.0523675
16.5127,0.066561
16.5915,0.0559772
16.6703,0.0563068
16.749,0.0622447
16.8278,0.0777451
16.9066,0.0628822
16.9854,0.048449
17.0642,0.0661542
17.1429,0.0690492
17.2217,0.0640127
17.3005,0.0642774
17.3793,0.0431186
17.4581,0.0531732
17.5369,0.0649496
17.6156,0.0779134
17.6944,0.0596764
17.7732,0.0733077
17.852,0.0709091
17.9308,0.0601376
18.0095,0.0762221
18.0883,0.0409663
18.1671,0.0787902
18.2459,0.0880861
18.3247,0.0812482
18.4035,0.0764527
18.4822,0.0447069
18.561,0.0633618
18.6398,0.0714007
18.7186,0.0544299
18.7974,0.0573595
18.8761,0.0684791
18.9549,0.0656673
19.0337,0.0539453
19.1125,0.0597387
19.1913,0.0704023
19.2701,0.0360471
19.3488,0.0528586
19.4276,0.0861426
19.5064,0.0664226
19.5852,0.0633537
19.664,0.0655901
19.7427,0.0774816
19.8215,0.058783
19.9003,0.0734856
19.9791,0.0796135
20.0579,0.0642247
20.1367,0.0658798
20.2154,0.0813739
20.2942,0.0476762
20.373,0.0553305
20.4518,0.0808609
20.5306,0.066351
20.6093,0.0791037
20.6881,0.066996
20.7669,0.0707672
20.8457,0.0415754
20.9245,0.0407483
21.0032,0.0537921
21.082,0.0628696
21.1608,0.0689685
21.2396,0.0636816
21.3184,0.0781426
21.3972,0.0774399
21.4759,0.0638648
21.5547,0.0562064
21.6335,0.090938
21.7123,0.0828468
21.7911,0.132826
21.8698,0.10156
21.9486,0.124624
22.0274,0.113591
22.1062,0.137903
22.185,0.166704
22.2638,0.217511
22.3425,0.2466
22.4213,0.342302
22.5001,0.44422
22.5789,0.606677
22.6577,0.732948
22.7364,0.68955
22.8152,0.552107
22.894,0.397136
22.9728,0.317804
23.0516,0.252026
23.1304,0.230887
23.2091,0.169342
23.2879,0.162471
23.3667,0.146496
23.4455,0.141563
23.5243,0.106825
23.603,0.113605
23.6818,0.0994171
23.7606,0.091161
23.8394,0.0823938
23.9182,0.109383
23.997,0.103411
24.0757,0.113901
24.1545,0.113018
24.2333,0.0895644
24.3121,0.0846074
24.3909,0.115372
24.4696,0.0843109
24.5484,0.0770155
24.6272,0.0938195
24.706,0.0809651
24.7848,0.0565994
24.8636,0.0720893
24.9423,0.0684813
25.0211,0.0427593
25.0999,0.0632634
25.1787,0.05648
25.2575,0.0575732
25.3362,0.0639873
25.415,0.0598
25.4938,0.0712836
25.5726,0.0535191
25.6514,0.0735636
25.7302,0.0393723
25.8089,0.0507563
25.8877,0.0609777
25.9665,0.0496534
26.0453,0.068709
26.1241,0.0483377
26.2028,0.0622321
26.2816,0.0430603
26.3604,0.0806227
26.4392,0.0486595
26.518,0.0417341
26.5967,0.0804934
26.6755,0.0673721
26.7543,0.0586295
26.8331,0.0593184
26.9119,0.0632595
26.9907,0.067038
27.0694,0.0541853
27.1482,0.0680331
27.227,0.0652871
27.3058,0.0389375
27.3846,0.039301
27.4633,0.0663704
27.5421,0.0634051
27.6209,0.0602719
27.6997,0.0733985
27.7785,0.0572211
27.8573,0.0610431
27.936,0.05397
28.0148,0.0460216
28.0936,0.05445
28.1724,0.0834164
28.2512,0.0750988
28.3299,0.0722914
28.4087,0.0813404
28.4875,0.119062
28.5663,0.121287
28.6451,0.0951403
28.7239,0.0877009
28.8026,0.0736539
28.8814,0.0738787
28.9602,0.0487596
29.039,0.0711685
29.1178,0.0611228
29.1965,0.0344407
29.2753,0.0615026
29.3541,0.0497335
29.4329,0.0580685
29.5117,0.0541954
29.5905,0.0542518
29.6692,0.0722636
29.748,0.0406338
29.8268,0.050142
29.9056,0.0583679
29.9844,0.0456732
30.0631,0.0502472
30.1419,0.0786619
30.2207,0.0816372
30.2995,0.1048
30.3783,0.124057
30.4571,0.131811
30.5358,0.120121
30.6146,0.120169
30.6934,0.0789709
30.7722,0.0625909
30.851,0.09549
30.9297,0.069687
31.0085,0.073021
31.0873,0.0730875
31.1661,0.0664763
31.2449,0.0699598
31.3237,0.0666264
31.4024,0.0593853
31.4812,0.0734717
31.56,0.0633092
31.6388,0.0936886
31.7176,0.0737448
31.7963,0.0738428
31.8751,0.0559745
31.9539,0.0802331
32.0327,0.0561874
32.1115,0.0426012
32.1903,0.0427154
32.269,0.0523057
32.3478,0.0566495
32.4266,0.0680606
32.5054,0.0810502
32.5842,0.0609905
32.6629,0.0842425
32.7417,0.0872194
32.8205,0.0651333
32.8993,0.068835
32.9781,0.0787968
33.0568,0.0905152
33.1356,0.0537234
33.2144,0.0851701
33.2932,0.0694963
33.372,0.0541027
33.4508,0.069714
33.5295,0.0497378
33.6083,0.0698523
33.6871,0.0699095
33.7659,0.0586696
33.8447,0.094097
33.9234,0.0664496
34.0022,0.0450395
34.081,0.0734337
34.1598,0.0587293
34.2386,0.0886595
34.3174,0.0828668
34.3961,0.0499406
34.4749,0.0798096
34.5537,0.0586823
34.6325,0.058672
34.7113,0.0586618
34.79,0.0797688
34.8688,0.0586418
34.9476,0.0625994
35.0264,0.0733214
35.1052,0.0733119
35.184,0.0586036
35.2627,0.0797115
35.3415,0.0797024
35.4203,0.0765462
35.4991,0.0765373
35.5779,0.0884961
35.6566,0.0732486
35.7354,0.0796563
35.8142,0.0624938
35.893,0.0826649
35.9718,0.0624584
36.0506,0.0542322
36.1293,0.0696844
36.2081,0.0695964
36.2869,0.0494376
36.3657,0.058081
36.4445,0.0537337
36.5232,0.0725334
36.602,0.0616798
36.6808,0.0615599
36.7596,0.0651955
36.8384,0.0873002
36.9172,0.0685435
36.9959,0.0571525
37.0747,0.0683457
37.1535,0.0716681
37.2323,0.0568898
37.3111,0.0839108
37.3898,0.0778774
37.4686,0.0714107
37.5474,0.0713738
37.6262,0.0997059
37.705,0.0920285
37.7838,0.1393
37.8625,0.156388
37.9413,0.210652
38.0201,0.278283
38.0989,0.357002
38.1777,0.52581
38.2564,0.575163
38.3352,0.578011
38.414,0.511416
38.4928,0.430654
38.5716,0.305732
38.6503,0.238043
38.7291,0.188629
38.8079,0.160959
38.8867,0.125663
38.9655,0.106337
39.0443,0.106577
39.123,0.0969599
39.2018,0.0739167
39.2806,0.0707848
39.3594,0.0744851
39.4382,0.0812045
39.5169,0.0681191
39.5957,0.0906587
39.6745,0.0723412
39.7533,0.0613919
39.8321,0.0858931
39.9109,0.0620937
39.9896,0.0582303
40.0684,0.0585965
40.1472,0.0631915
40.226,0.0815362
40.3048,0.0679118
40.3835,0.0682922
40.4623,0.0604827
40.5411,0.0728079
40.6199,0.0731814
40.6987,0.0805118
40.7775,0.0619009
40.8562,0.077672
40.935,0.0474232
41.0138,0.0530205
41.0926,0.0531187
41.1714,0.0581294
41.2501,0.0709217
41.3289,0.0709752
41.4077,0.074773
41.4865,0.0533817
41.5653,0.0417128
41.6441,0.0709776
41.7228,0.0746558
41.8016,0.0745734
41.8804,0.0744812
41.9592,0.05296
42.038,0.0577797
42.1167,0.0664162
42.1955,0.0575203
42.2743,0.0573834
42.3531,0.0699749
42.4319,0.0771562
42.5107,0.0770136
42.5894,0.124701
42.6682,0.0953727
42.747,0.136687
42.8258,0.119892
42.9046,0.119742
42.9833,0.0761263
43.0621,0.0888338
43.1409,0.0824903
43.2197,0.0720773
43.2985,0.0554244
43.3773,0.0552441
43.456,0.059597
43.5348,0.0816034
43.6136,0.118194
43.6924,0.12237
43.7712,0.0743363
43.8499,0.0374806
43.9287,0.0583818
44.0075,0.0803401
44.0863,0.0698424
44.1651,0.0530923
44.2438,0.0573455
44.3226,0.0525169
44.4014,0.0649573
44.4802,0.0684226
44.559,0.0516569
44.6378,0.040984
44.7165,0.0778362
44.7953,0.0837528
44.8741,0.0593389
44.9529,0.0548627
45.0317,0.0628109
45.1104,0.0663298
45.1892,0.0623543
45.268,0.058175
45.3468,0.0790919
45.4256,0.0757569
45.5044,0.090314
45.5831,0.102945
45.6619,0.112054
45.7407,0.13051
45.8195,0.175188
45.8983,0.266125
45.977,0.364317
46.0558,0.494825
46.1346,0.700666
46.2134,0.892817
46.2922,1.0
46.371,0.904574
46.4497,0.73878
46.5285,0.5336
46.6073,0.364203
46.6861,0.254039
46.7649,0.182161
46.8436,0.132223
46.9224,0.109579
47.0012,0.107407
47.08,0.0900256
47.1588,0.102962
47.2376,0.0787439
47.3163,0.0904984
47.3951,0.0821324
47.4739,0.110675
47.5527,0.0825284
47.6315,0.091289
47.7102,0.0887467
47.789,0.0737384
47.8678,0.0892144
47.9466,0.0806385
48.0254,0.0777417
48.1042,0.0463303
48.1829,0.0515258
48.2617,0.0517901
48.3405,0.0520576
48.4193,0.0523278
48.4981,0.072651
48.5768,0.0616356
48.6556,0.0766088
48.7344,0.0661502
48.8132,0.0923835
48.892,0.0666523
48.9708,0.0706148
49.0495,0.0439311
49.1283,0.0632733
49.2071,0.074745
49.2859,0.0499375
49.3647,0.0715281
49.4434,0.0786752
49.5222,0.0553773
49.601,0.0822706
49.6798,0.0644614
49.7586,0.0793206
49.8374,0.0760702
49.9161,0.0607166
49.9949,0.0397475
50.0737,0.0765456
50.1525,0.0693794
50.2313,0.0695333
50.31,0.0569571
50.3888,0.0467164
50.4676,0.0773138
50.5464,0.0808748
50.6252,0.0526273
50.7039,0.0664719
50.7827,0.087735
50.8615,0.0938523
50.9403,0.0968337
51.0191,0.0709816
51.0979,0.0710794
51.1766,0.0584311
51.2554,0.0672644
51.3342,0.0820284
51.413,0.0346869
51.4918,0.0347268
51.5705,0.0537225
51.6493,0.0673399
51.7281,0.0711591
51.8069,0.0478458
51.8857,0.0780862
51.9645,0.0778796
52.0432,0.0843547
52.122,0.0738998
52.2008,0.0617524
52.2796,0.0520774
52.3584,0.0655752
52.4371,0.0566157
52.5159,0.0609597
52.5947,0.0829624
52.6735,0.0687724
52.7523,0.0603971
52.8311,0.0885954
52.9098,0.0642665
52.9886,0.0503989
53.0674,0.0678986
53.1462,0.0595476
53.225,0.0713377
53.3037,0.0781694
53.3825,0.0591052
53.4613,0.0709147
53.5401,0.0588435
53.6189,0.0629476
53.6977,0.070555
53.7764,0.0838477
53.8552,0.0739229
53.934,0.0866996
54.0128,0.0835831
54.0916,0.0923324
54.1703,0.102895
54.2491,0.148507
54.3279,0.187513
54.4067,0.220987
54.4855,0.242577
54.5643,0.22683
54.643,0.231425
54.7218,0.192959
54.8006,0.151878
54.8794,0.125528
54.9582,0.0976053
55.0369,0.0802248
55.1157,0.0700238
55.1945,0.0770607
55.2733,0.0624282
55.3521,0.0625035
55.4309,0.0665547
55.5096,0.0584555
55.5884,0.0740689
55.6672,0.0775875
55.746,0.0630048
55.8248,0.0872823
55.9035,0.0544973
55.9823,0.0711175
56.0611,0.0675098
56.1399,0.0636937
56.2187,0.0638511
56.2974,0.088168
56.3762,0.0641829
56.455,0.0720765
56.5338,0.0453793
56.6126,0.0510212
56.6914,0.0561436
56.7701,0.0690644
56.8489,0.0610674
56.9277,0.0801881
57.0065,0.0614652
57.0853,0.0467357
57.164,0.0618722
57.2428,0.0620782
57.3216,0.0704768
57.4004,0.0530202
57.4792,0.0532289
57.558,0.0784241
57.6367,0.0750637
57.7155,0.0715178
57.7943,0.0754731
57.8731,0.0792406
57.9519,0.0681469
58.0306,0.0683408
58.1094,0.0597722
58.1882,0.0599659
58.267,0.049766
58.3458,0.0554185
58.4246,0.0693099
58.5033,0.0695039
58.5821,0.080987
58.6609,0.0845915
58.7397,0.0658629
58.8185,0.0815704
58.8972,0.0781962
58.976,0.0664472
59.0548,0.057169
59.1336,0.0823503
59.2124,0.0670326
59.2912,0.0672279
59.3699,0.0829361
59.4487,0.0718423
59.5275,0.0678119
59.6063,0.0395262
59.6851,0.0681933
59.7638,0.096759
59.8426,0.0590907
59.9214,0.0641976
60.0002,0.0844077
60.079,0.0732679
60.1578,0.0311302
60.2365,0.0598489
60.3153,0.0736737
60.3941,0.0484234
60.4729,0.0411372
60.5517,0.0411729
60.6304,0.0547441
60.7092,0.0485684
60.788,0.0547785
60.8668,0.0485876
60.9456,0.0651568
61.0244,0.0851512
61.1031,0.0600846
61.1819,0.0545368
61.2607,0.0813169
61.3395,0.0647322
61.4183,0.0542322
61.497,0.0772488
61.5758,0.0644126
61.6546,0.0643067
61.7334,0.0642016
61.8122,0.0768272
61.8909,0.072757
61.9697,0.0589582
62.0485,0.0588583
62.1273,0.0533016
62.2061,0.0635992
62.2849,0.0835562
62.3636,0.0761429
62.4424,0.0678619
62.5212,0.0632365
62.6,0.0758816
62.6788,0.0718323
62.7575,0.0757203
62.8363,0.0896461
62.9151,0.0673784
62.9939,0.0792512
63.0727,0.0627008
63.1515,0.0671736
63.2302,0.0576376
63.309,0.0575777
63.3878,0.0789376
63.4666,0.0922804
63.5454,0.0519554
63.6241,0.0622999
63.7029,0.0518593
63.7817,0.0786909
63.8605,0.0748964
63.9393,0.0888591
64.0181,0.0708517
64.0968,0.066592
64.1756,0.0454305
64.2544,0.0380492
64.3332,0.0707207
64.412,0.088662
64.4907,0.088635
64.5695,0.0664155
64.6483,0.0745825
64.7271,0.0745592
64.8059,0.0745368
64.8847,0.0451959
64.9634,0.070527
65.0422,0.074474
65.121,0.0662624
65.1998,0.0281871
65.2786,0.0512891
65.3573,0.0661951
65.4361,0.0450364
65.5149,0.0703553
65.5937,0.0566236
65.6725,0.0660613
65.7513,0.0660249
65.83,0.0448601
65.9088,0.0659502
65.9876,0.0701358
66.0664,0.0847961
66.1452,0.0971492
66.2239,0.0657956
66.3027,0.050825
66.3815,0.0812315
66.4603,0.0445522
66.5391,0.0738333
66.6179,0.0506717
66.6966,0.0775096
66.7754,0.069752
66.8542,0.0654902
66.933,0.0736441
67.0118,0.0809282
67.0905,0.0442502
67.1693,0.0608028
67.2481,0.050372
67.3269,0.0503352
67.4057,0.0734219
67.4845,0.0841169
67.5632,0.055684
67.642,0.0806337
67.7208,0.0501522
67.7996,0.0732387
67.8784,0.0805222
67.9571,0.076914
68.0359,0.0691541
68.1147,0.0804007
68.1935,0.0553673
68.2723,0.0602498
68.351,0.0766759
68.4298,0.0766177
68.5086,0.0688373
68.5874,0.0800634
68.6662,0.0433562
68.745,0.0726
68.8237,0.0643221
68.9025,0.0492976
68.9813,0.0260794
69.0601,0.0545652
69.1389,0.0892817
69.2176,0.0680632
69.2964,0.0719201
69.3752,0.0486756
69.454,0.071672
69.5328,0.0715428
69.6116,0.0632206
69.6903,0.0536111
69.7691,0.062936
69.8479,0.0533009
69.9267,0.0580671
70.0055,0.0475027
70.0842,0.0473317
70.163,0.0663169
70.2418,0.0524489
70.3206,0.0772652
70.3994,0.0570448
70.4782,0.0733591
70.5569,0.0731921
70.6357,0.0565446
70.7145,0.0691105
70.7933,0.0689491
70.8721,0.0761113
70.9508,0.0319635
71.0296,0.0758003
71.1084,0.0601361
71.1872,0.0505144
71.266,0.0680342
71.3448,0.0551634
71.4235,0.0750762
71.5023,0.0749415
71.5811,0.0674892
71.6599,0.0306937
71.7387,0.0812426
71.8174,0.0811247
71.8962,0.0841586
71.975,0.0706527
72.0538,0.0807989
72.1326,0.0981201
72.2114,0.0867902
72.2901,0.0772468
72.3689,0.0835814
72.4477,0.0663535
72.5265,0.0894041
72.6053,0.0735346
72.684,0.0768826
72.7628,0.062127
72.8416,0.0697956
72.9204,0.076729
72.9992,0.0766887
73.078,0.0659221
73.1567,0.0531629
73.2355,0.0798709
73.3143,0.0731712
73.3931,0.0798386
73.4719,0.0576364
73.5506,0.0618573
73.6294,0.0618592
73.7082,0.04271
73.787,0.0731667
73.8658,0.0731833
73.9445,0.0619157
74.0233,0.0531793
74.1021,0.0696917
74.1809,0.0861603
74.2597,0.0660128
74.3385,0.0533261
74.4172,0.0621353
74.496,0.0661532
74.5748,0.0802099
74.6536,0.107791
74.7324,0.12979
74.8111,0.100431
74.8899,0.103052
74.9687,0.066527
75.0475,0.0538695
75.1263,0.0584824
75.2051,0.0774822
75.2838,0.0628619
75.3626,0.070662
75.4414,0.0630241
75.5202,0.0543449
75.599,0.0709112
75.6777,0.0709962
75.7565,0.059138
75.8353,0.063448
75.9141,0.0635339
75.9929,0.0593948
76.0717,0.059477
76.1504,0.0595509
76.2292,0.0785367
76.308,0.0501964
76.3868,0.0752355
76.4656,0.0717151
76.5443,0.0640377
76.6231,0.0680401
76.7019,0.0753904
76.7807,0.0449715
76.8595,0.0388007
76.9383,0.0450207
77.017,0.0450438
77.0958,0.05546
77.1746,0.0682119
77.2534,0.0642667
77.3322,0.0720086
77.4109,0.0720306
77.4897,0.0451768
77.5685,0.0643549
77.6473,0.0885306
77.7261,0.0601747
77.8049,0.0721403
77.8836,0.0684096
77.9624,0.0507662
78.0412,0.0557217
78.12,0.0722225
78.1988,0.0824893
78.2775,0.0508376
78.3563,0.064549
78.4351,0.0645595
78.5139,0.0685315
78.5927,0.0722841
78.6715,0.060338
78.7502,0.068525
78.829,0.0645509
78.9078,0.0645411
78.9866,0.0557604
79.0654,0.0684583
79.1441,0.0824196
79.2229,0.0756939
79.3017,0.0601342
79.3805,0.0643091
79.4593,0.0600319
79.538,0.055433
79.6168,0.0754147
79.6956,0.03135
79.7744,0.08813
79.8532,0.0502038
79.932,0.0677938
80.0107,0.0677197
80.0895,0.0749677
80.1683,0.0713261
80.2471,0.0712545
80.3259,0.0934018
80.4046,0.0780943
80.4834,0.0441716
80.5622,0.0874156
80.641,0.0544354
80.7198,0.0494383
80.7986,0.0743646
80.8773,0.0929555
80.9561,0.0742517
81.0349,0.0206307
81.1137,0.0628603
81.1925,0.0585891
81.2712,0.0540067
81.35,0.0666952
81.4288,0.0704097
81.5076,0.058431
81.5864,0.0925611
81.6652,0.0837126
81.7439,0.0738597
81.8227,0.092487
81.9015,0.0772308
81.9803,0.0896082
82.0591,0.0804764
82.1378,0.086653
82.2166,0.0836124
82.2954,0.0537325
82.3742,0.0702176
82.453,0.0664714
82.5318,0.0738023
82.6105,0.0772251
82.6893,0.0738306
82.7681,0.0583363
82.8469,0.0772809
82.9257,0.073895
83.0044,0.0489357
83.0832,0.0703822
83.162,0.0739829
83.2408,0.0774269
83.3196,0.0627637
83.3984,0.0628014
83.4771,0.0668081
83.5559,0.0899724
83.6347,0.0437677
83.7135,0.0776661
83.7923,0.054249
83.871,0.054294
83.9498,0.0439457
84.0286,0.0778466
84.1074,0.0494959
84.1862,0.0632384
84.265,0.0590565
84.3437,0.0672836
84.4225,0.0545837
84.5013,0.0813427
84.5801,0.0746856
84.6589,0.0711362
84.7376,0.0634302
84.8164,0.0814062
84.8952,0.0546728
84.974,0.0497322
85.0528,0.0673899
85.1316,0.0673821
85.2103,0.0442496
85.2891,0.0442395
85.3679,0.0633849
85.4467,0.0710938
85.5255,0.0904538
85.6042,0.0545896
85.683,0.0710606
85.7618,0.0672971
85.8406,0.0812885
85.9194,0.0672749
85.9981,0.0495989
86.0769,0.0632848
86.1557,0.0709927
86.2345,0.0709804
86.3133,0.0709663
86.3921,0.0495318
86.4708,0.0709285
86.5496,0.0709058
86.6284,0.058938
86.7072,0.0589119
86.786,0.0439503
86.8647,0.0743629
86.9435,0.0542785
87.0223,0.0542452
87.1011,0.0742631
87.1799,0.0840582
87.2587,0.0706281
87.3374,0.0628758
87.4162,0.0301422
87.495,0.0869658
87.5738,0.0490836
87.6526,0.0740393
87.7313,0.0774196
87.8101,0.0773905
87.8889,0.0703828
87.9677,0.0626353
88.0465,0.0703282
88.1253,0.0665496
88.204,0.0665242
88.2828,0.0664995
88.3616,0.0488109
88.4404,0.0624852
88.5192,0.0835798
88.5979,0.0865948
88.6767,0.0865737
88.7555,0.0770985
88.8343,0.0623796
88.9131,0.0663276
88.9919,0.0770403
89.0706,0.0580986
89.1494,0.048607
89.2282,0.053524
89.307,0.0662358
89.3858,0.0662174
89.4645,0.0661967
89.5433,0.086358
89.6221,0.0863281
89.7009,0.0801102
89.7797,0.0698234
89.8585,0.0733526
89.9372,0.0293162
90.016,0.0619656
90.0948,0.0619114
90.1736,0.0658244
90.2524,0.042647
90.3311,0.0617496
90.4099,0.0694167
90.4887,0.0729341
90.5675,0.0886856
90.6463,0.0886365
90.7251,0.124841
90.8038,0.120573
90.8826,0.0855628
90.9614,0.0793375
91.0402,0.0652961
91.119,0.0690122
91.1977,0.0759578
91.2765,0.0475306
91.3553,0.052438
91.4341,0.0611759
91.5129,0.0688745
91.5916,0.0651043
91.6704,0.0724116
91.7492,0.0611123
91.828,0.0758046
91.9068,0.0419466
91.9856,0.0688234
92.0643,0.0822256
92.1431,0.0650848
92.2219,0.0852841
92.3007,0.0853009
92.3795,0.0882589
92.4582,0.0758919
92.537,0.0823388
92.6158,0.0725433
92.6946,0.0612911
92.7734,0.091269
92.8522,0.0613757
92.9309,0.0793934
93.0097,0.0654423
93.0885,0.0423737
93.1673,0.0827051
93.2461,0.0574254
93.3248,0.0656815
93.4036,0.0695014
93.4824,0.0658194
93.5612,0.0482277
93.64,0.0366486
93.7188,0.0733674
93.7975,0.0484614
93.8763,0.0662084
93.9551,0.070045
94.0339,0.0536487
94.1127,0.0371465
94.1914,0.0583633
94.2702,0.0773766
94.349,0.0627689
94.4278,0.0628611
94.5066,0.074243
94.5854,0.0707676
94.6641,0.0589179
94.7429,0.0745254
94.8217,0.0813011
94.9005,0.0711459
94.9793,0.0592964
95.058,0.06758
95.1368,0.0636984
95.2156,0.0750647
95.2944,0.0849647
95.3732,0.0596925
95.452,0.0819525
95.5307,0.0598222
95.6095,0.0449516
95.6883,0.0641635
95.7671,0.0554447
95.8459,0.0719568
95.9246,0.0719772
96.0034,0.0755599
96.0822,0.09137
96.161,0.0755721
96.2398,0.0853992
96.3186,0.0555076
96.3973,0.0642461
96.4761,0.0388645
96.5549,0.0554215
96.6337,0.0718679
96.7125,0.0598865
96.7912,0.0553106
96.87,0.0552731
96.9488,0.0597742
97.0276,0.0850788
97.1064,0.0551635
97.1851,0.0716105
97.2639,0.0849735
97.3427,0.0715431
97.4215,0.0637912
97.5003,0.0848774
97.5791,0.0848478
97.6578,0.096404
97.7366,0.0783747
97.8154,0.0783494
97.8942,0.0783257
97.973,0.0713243
98.0517,0.0548217
98.1305,0.0635651
98.2093,0.078247
98.2881,0.0674998
98.3669,0.0635187
98.4457,0.0782056
98.5244,0.071216
98.6032,0.0781865
98.682,0.0814503
98.7608,0.0634751
98.8396,0.0634713
98.9183,0.044313
98.9971,0.0211889
99.0759,0.0674367
99.1547,0.0443156
99.2335,0.0634754
99.3123,0.0674478
99.391,0.0674542
99.4698,0.049797
99.5486,0.0635032
99.6274,0.0674804
99.7062,0.0876777
99.7849,0.0443798
99.8637,0.0815184
99.9425,0.071282
100.021,0.067544
100.1,0.0782906
100.179,0.0382553
100.258,0.0675908
100.336,0.0783391
100.415,0.063657
100.494,0.0676416
100.573,0.0594676
100.652,0.0549468
100.73,0.050028
100.809,0.071458
100.888,0.0714667
100.967,0.0784512
101.045,0.059531
101.124,0.0848732
101.203,0.096456
101.282,0.0677142
101.361,0.0714525
101.439,0.0816853
101.518,0.0749852
101.597,0.0499774
101.676,0.0594266
101.754,0.0713429
101.833,0.0635904
101.912,0.0593291
101.991,0.0674814
102.07,0.0547124
102.148,0.0674029
102.227,0.0845135
102.306,0.0780567
102.385,0.071039
102.464,0.0779803
102.542,0.0779428
102.621,0.0495096
102.7,0.0708907
102.779,0.0744243
102.857,0.0670683
102.936,0.0588433
103.015,0.0376828
103.094,0.090094
103.173,0.0629728
103.251,0.0809134
103.33,0.0706354
103.409,0.0741778
103.488,0.0628637
103.566,0.0869936
103.645,0.0807873
103.724,0.0585726
103.803,0.0585534
103.882,0.0838769
103.96,0.0704638
104.039,0.0806996
104.118,0.0740061
104.197,0.066674
104.276,0.0773968
104.354,0.0626908
104.433,0.066653
104.512,0.048985
104.591,0.0666484
104.669,0.0666489
104.748,0.0539217
104.827,0.0584643
104.906,0.0838117
104.985,0.062703
105.063,0.074002
105.142,0.0740141
105.221,0.0585152
105.3,0.0539929
105.378,0.0667405
105.457,0.0585687
105.536,0.0540521
105.615,0.0899287
105.694,0.0775621
105.772,0.0491928
105.851,0.084036
105.93,0.0742383
106.009,0.0629817
106.087,0.0587915
106.166,0.0588269
106.245,0.0708078
106.324,0.030425
106.403,0.0708863
106.481,0.0495105
106.56,0.0709704
106.639,0.0495972
106.718,0.0844568
106.797,0.090477
106.875,0.0546713
106.954,0.0634821
107.033,0.0782305
107.112,0.0593576
107.19,0.0594087
107.269,0.0878383
107.348,0.0784359
107.427,0.0550275
107.506,0.0550808
107.584,0.0716166
107.663,0.0597266
107.742,0.0597806
107.821,0.0598337
107.899,0.0449521
107.978,0.0821248
108.057,0.0554362
108.136,0.0853566
108.215,0.0719986
108.293,0.0643145
108.372,0.0316421
108.451,0.0720868
108.53,0.0643879
108.608,0.0756955
108.687,0.0556602
108.766,0.0602107
108.845,0.0556804
108.924,0.0644463
109.002,0.0556851
109.081,0.0602236
109.16,0.0855642
109.239,0.0721651
109.318,0.079141
109.396,0.0824069
109.475,0.0855485
109.554,0.0644258
109.633,0.0791193
109.711,0.0683824
109.79,0.0507126
109.869,0.0601811
109.948,0.0316994
110.027,0.0721168
110.105,0.0556312
110.184,0.0556284
110.263,0.0756773
110.342,0.0452308
110.42,0.0556237
110.499,0.0721057
110.578,0.0601625
110.657,0.0683555
110.736,0.0643906
110.814,0.0756828
110.893,0.0790973
110.972,0.0823734
111.051,0.0601859
111.13,0.0644174
111.208,0.0683933
111.287,0.0556733
111.366,0.0602223
111.445,0.0644584
111.523,0.0684389
111.602,0.0557235
111.681,0.0944388
111.76,0.060294
111.839,0.04538
111.917,0.0792542
111.996,0.0758644
112.075,0.0887509
112.154,0.0603958
112.232,0.0604198
112.311,0.064669
112.39,0.0393433
112.469,0.0559604
112.548,0.0559889
112.626,0.0647808
112.705,0.0725313
112.784,0.0648431
112.863,0.0511784
112.941,0.0688766
113.02,0.0829135
113.099,0.079678
113.178,0.065015
113.257,0.0727715
113.335,0.0728089
113.414,0.0728469
113.493,0.0651657
113.572,0.0893584
113.651,0.0832137
113.729,0.0832533
113.808,0.0461672
113.887,0.0864803
113.966,0.0
114.044,0.0612181
114.123,0.0567168
114.202,0.0732289
114.281,0.0613038
114.36,0.0835052
114.438,0.0768223
114.517,0.0612994
114.596,0.0567454
114.675,0.076772
114.753,0.0517408
114.832,0.0611453
114.911,0.0765763
114.99,0.0460436
115.069,0.0608808
115.147,0.076291
115.226,0.0726111
115.305,0.0794713
115.384,0.0646479
115.463,0.072242
115.541,0.068364
115.62,0.0789706
115.699,0.0504497
115.778,0.050326
115.856,0.0639006
115.935,0.063779
116.014,0.0749474
116.093,0.0498421
116.172,0.0711417
116.25,0.0812758
116.329,0.0589676
116.408,0.0439232
116.487,0.0629687
116.565,0.0540978
116.644,0.0838707
116.723,0.0806191
116.802,0.0665144
116.881,0.0771461
116.959,0.0535871
117.038,0.062254
117.117,0.0863147
117.196,0.0831872
117.274,0.0732706
117.353,0.0765947
117.432,0.0575878
117.511,0.0529681
117.59,0.0616512
117.668,0.0762731
117.747,0.0572751
117.826,0.052664
117.905,0.0760545
117.984,0.0475892
118.062,0.0823365
118.141,0.0882449
118.22,0.0757892
118.299,0.0757269
118.377,0.0472695
118.456,0.0850608
118.535,0.0648157
118.614,0.0607904
118.693,0.0607333
118.771,0.0786464
118.85,0.0606204
118.929,0.0518017
119.008,0.0644742
119.086,0.0644148
119.165,0.0561581
119.244,0.0466023
119.323,0.0813085
119.402,0.0640313
119.48,0.0676455
119.559,0.071065
119.638,0.0743129
119.717,0.0805566
119.795,0.0705229
119.874,0.0666805
119.953,0.0625811
119.992,0.0825771