File: DPhil-projects/SIBC StrucMag/processed_XRD_spectra/SuNAM21Gd-SM2b_processed.csv
Angle,Intensity
5.01057,0.0431877
5.08935,0.0409615
5.16813,0.0539236
5.24691,0.0558426
5.32569,0.0590348
5.40447,0.0570662
5.48326,0.0425775
5.56204,0.046064
5.64082,0.0508758
5.7196,0.058216
5.79838,0.0548375
5.87716,0.0540989
5.95595,0.0738637
6.03473,0.0580435
6.11351,0.0586676
6.19229,0.0696223
6.27107,0.0516517
6.34985,0.0578494
6.42864,0.0584815
6.50742,0.064469
6.5862,0.0727826
6.66498,0.0670512
6.74376,0.0906221
6.82254,0.0759461
6.90133,0.0802583
6.98011,0.101326
7.05889,0.108278
7.13767,0.113013
7.21645,0.106456
7.29523,0.137172
7.37402,0.182602
7.4528,0.340579
7.53158,0.398419
7.61036,0.170045
7.68914,0.0806255
7.76792,0.0639368
7.84671,0.0572879
7.92549,0.0666579
8.00427,0.0372425
8.08305,0.0284082
8.16183,0.0488459
8.24061,0.0604553
8.3194,0.0533033
8.39818,0.0675282
8.47696,0.0607273
8.55574,0.0432642
8.63452,0.0438168
8.7133,0.0577231
8.79209,0.0772498
8.87087,0.0602658
8.94965,0.0439895
9.02843,0.0531438
9.10721,0.0552621
9.186,0.0540522
9.26478,0.0510995
9.34356,0.0582199
9.42234,0.0695139
9.50112,0.0396023
9.5799,0.0627196
9.65869,0.0532581
9.73747,0.0389111
9.81625,0.0540853
9.89503,0.0643755
9.97381,0.0459082
10.0526,0.0444093
10.1314,0.0590601
10.2102,0.0560548
10.2889,0.0396576
10.3677,0.0666904
10.4465,0.0462967
10.5253,0.0705345
10.6041,0.0578823
10.6828,0.06492
10.7616,0.0619716
10.8404,0.0400855
10.9192,0.0626333
10.998,0.056065
11.0768,0.0649366
11.1555,0.0584695
11.2343,0.0534039
11.3131,0.0440594
11.3919,0.0576376
11.4707,0.0446528
11.5494,0.0716018
11.6282,0.054877
11.707,0.0705727
11.7858,0.0457753
11.8646,0.0557035
11.9434,0.0577924
12.0221,0.048578
12.1009,0.0635993
12.1797,0.0737431
12.2585,0.0410273
12.3373,0.0643644
12.416,0.0760785
12.4948,0.080927
12.5736,0.0701814
12.6524,0.0486117
12.7312,0.0723293
12.81,0.0550325
12.8887,0.0608652
12.9675,0.0475876
13.0463,0.0499005
13.1251,0.0460053
13.2039,0.0462658
13.2826,0.0603393
13.3614,0.0791786
13.4402,0.0679828
13.519,0.0451649
13.5978,0.0432238
13.6766,0.0704869
13.7553,0.0673095
13.8341,0.0565159
13.9129,0.0606068
13.9917,0.044565
14.0705,0.0718335
14.1492,0.0451092
14.228,0.063553
14.3068,0.0561804
14.3856,0.0436689
14.4644,0.066206
14.5432,0.0486957
14.6219,0.0611887
14.7007,0.0492556
14.7795,0.076011
14.8583,0.0694019
14.9371,0.0892371
15.0158,0.0817677
15.0946,0.085214
15.1734,0.0723057
15.2522,0.0444464
15.331,0.0536863
15.4097,0.0677871
15.4885,0.0699013
15.5673,0.0479314
15.6461,0.0458931
15.7249,0.041311
15.8037,0.0336363
15.8824,0.0618841
15.9612,0.0493888
16.04,0.0624688
16.1188,0.0685513
16.1976,0.0502663
16.2763,0.0381448
16.3551,0.0531097
16.4339,0.0533927
16.5127,0.0536722
16.5915,0.049353
16.6703,0.0367752
16.749,0.0544483
16.8278,0.0426445
16.9066,0.0428597
16.9854,0.0430718
17.0642,0.059664
17.1429,0.0485191
17.2217,0.0534473
17.3005,0.0489057
17.3793,0.0413789
17.4581,0.0605468
17.5369,0.0517154
17.6156,0.0586324
17.6944,0.0542745
17.7732,0.0446245
17.852,0.0589631
17.9308,0.0365454
18.0095,0.0394961
18.0883,0.069482
18.1671,0.0396105
18.2459,0.0570896
18.3247,0.0525355
18.4035,0.0237853
18.4822,0.0451515
18.561,0.0424788
18.6398,0.0593083
18.7186,0.0592387
18.7974,0.0449316
18.8761,0.0546121
18.9549,0.042114
19.0337,0.0520979
19.1125,0.0495618
19.1913,0.0628244
19.2701,0.0646546
19.3488,0.0644186
19.4276,0.05107
19.5064,0.0433886
19.5852,0.0528916
19.664,0.0526252
19.7427,0.0545963
19.8215,0.0667265
19.9003,0.055994
19.9791,0.0532683
20.0579,0.0690137
20.1367,0.0498307
20.2154,0.0558157
20.2942,0.0593071
20.373,0.0500801
20.4518,0.0422831
20.5306,0.0647129
20.6093,0.0619273
20.6881,0.0509754
20.7669,0.0582244
20.8457,0.0553823
20.9245,0.0525109
21.0032,0.0475091
21.082,0.0774982
21.1608,0.0578228
21.2396,0.0570335
21.3184,0.0751324
21.3972,0.0775121
21.4759,0.0671821
21.5547,0.0806523
21.6335,0.0769927
21.7123,0.0947904
21.7911,0.11404
21.8698,0.0923211
21.9486,0.117568
22.0274,0.120456
22.1062,0.159798
22.185,0.173351
22.2638,0.2097
22.3425,0.241538
22.4213,0.341267
22.5001,0.48884
22.5789,0.625886
22.6577,0.69266
22.7364,0.569651
22.8152,0.449486
22.894,0.334778
22.9728,0.281754
23.0516,0.217887
23.1304,0.193808
23.2091,0.169696
23.2879,0.137689
23.3667,0.133931
23.4455,0.126967
23.5243,0.120843
23.603,0.119038
23.6818,0.0941367
23.7606,0.0822871
23.8394,0.081384
23.9182,0.0775332
23.997,0.0868708
24.0757,0.0757671
24.1545,0.0937331
24.2333,0.0861075
24.3121,0.0559654
24.3909,0.100012
24.4696,0.0612654
24.5484,0.0639117
24.6272,0.0647916
24.706,0.0620785
24.7848,0.0784238
24.8636,0.0563112
24.9423,0.0667551
25.0211,0.0695388
25.0999,0.055216
25.1787,0.0427861
25.2575,0.057272
25.3362,0.0562164
25.415,0.0572711
25.4938,0.0365402
25.5726,0.0572469
25.6514,0.0515142
25.7302,0.0501603
25.8089,0.0460922
25.8877,0.0519802
25.9665,0.0574897
26.0453,0.0458354
26.1241,0.0314415
26.2028,0.0684547
26.2816,0.0557305
26.3604,0.0431251
26.4392,0.0570974
26.518,0.0443699
26.5967,0.0505359
26.6755,0.0657317
26.7543,0.0397659
26.8331,0.0402656
26.9119,0.0694343
26.9907,0.0654334
27.0694,0.0635571
27.1482,0.0591233
27.227,0.0543431
27.3058,0.0491362
27.3846,0.0495517
27.4633,0.0499528
27.5421,0.0503203
27.6209,0.0614887
27.6997,0.0592373
27.7785,0.0541288
27.8573,0.0740593
27.936,0.0574556
28.0148,0.0701365
28.0936,0.0579769
28.1724,0.0395094
28.2512,0.0527946
28.3299,0.0468316
28.4087,0.0820231
28.4875,0.0972631
28.5663,0.0956958
28.6451,0.0646334
28.7239,0.0329304
28.8026,0.0541595
28.8814,0.0768221
28.9602,0.0514227
29.039,0.0628156
29.1178,0.0575078
29.1965,0.0630117
29.2753,0.0576959
29.3541,0.04184
29.4329,0.0419248
29.5117,0.0683868
29.5905,0.0580114
29.6692,0.0521896
29.748,0.0685681
29.8268,0.0422403
29.9056,0.0491995
29.9844,0.0862554
30.0631,0.0663248
30.1419,0.0663847
30.2207,0.0884036
30.2995,0.104656
30.3783,0.13821
30.4571,0.106445
30.5358,0.114472
30.6146,0.0847588
30.6934,0.0907384
30.7722,0.0694012
30.851,0.0644452
30.9297,0.071957
31.0085,0.0563266
31.0873,0.0564125
31.1661,0.0647815
31.2449,0.0723045
31.3237,0.053679
31.4024,0.0724961
31.4812,0.0625135
31.56,0.0626171
31.6388,0.0599677
31.7176,0.0600777
31.7963,0.0629462
31.8751,0.0443621
31.9539,0.0480396
32.0327,0.0605449
32.1115,0.0547886
32.1903,0.0517533
32.269,0.0609245
32.3478,0.0581833
32.4266,0.0553101
32.5054,0.0692926
32.5842,0.0614642
32.6629,0.0456599
32.7417,0.0721857
32.8205,0.0672953
32.8993,0.0699977
32.9781,0.0726172
33.0568,0.0532797
33.1356,0.0534259
33.2144,0.0680222
33.2932,0.0568792
33.372,0.0570197
33.4508,0.050649
33.5295,0.0572803
33.6083,0.0542295
33.6871,0.0661017
33.7659,0.0296333
33.8447,0.0575101
33.9234,0.04745
34.0022,0.0474453
34.081,0.0574925
34.1598,0.0394162
34.2386,0.0660552
34.3174,0.0573704
34.3961,0.0434329
34.4749,0.0507638
34.5537,0.0433235
34.6325,0.043253
34.7113,0.0600618
34.79,0.0504562
34.8688,0.068152
34.9476,0.0597722
35.0264,0.0596712
35.1052,0.0533971
35.184,0.0677293
35.2627,0.0750268
35.3415,0.0620425
35.4203,0.072335
35.4991,0.0745826
35.5779,0.0587163
35.6566,0.0614335
35.7354,0.0415082
35.8142,0.0665262
35.893,0.055082
35.9718,0.0608081
36.0506,0.060656
36.1293,0.060506
36.2081,0.0318336
36.2869,0.057342
36.3657,0.0600759
36.4445,0.0475562
36.5232,0.0507695
36.602,0.0568148
36.6808,0.0436269
36.7596,0.0355349
36.8384,0.0354325
36.9172,0.0563909
36.9959,0.0788185
37.0747,0.0695439
37.1535,0.0742054
37.2323,0.0643894
37.3111,0.0868934
37.3898,0.0560316
37.4686,0.0763179
37.5474,0.0848229
37.6262,0.0907352
37.705,0.0963289
37.7838,0.123583
37.8625,0.175292
37.9413,0.194024
38.0201,0.286459
38.0989,0.426937
38.1777,0.551094
38.2564,0.58386
38.3352,0.545211
38.414,0.436945
38.4928,0.328169
38.5716,0.254705
38.6503,0.184672
38.7291,0.163963
38.8079,0.116451
38.8867,0.125613
38.9655,0.113833
39.0443,0.0789277
39.123,0.0746195
39.2018,0.0880252
39.2806,0.0623906
39.3594,0.0627144
39.4382,0.0571693
39.5169,0.0575157
39.5957,0.0665087
39.6745,0.0550772
39.7533,0.0586143
39.8321,0.0558364
39.9109,0.0623967
39.9896,0.0497244
40.0684,0.066073
40.1472,0.0467153
40.226,0.0578558
40.3048,0.0513728
40.3835,0.0517948
40.4623,0.0442374
40.5411,0.0488212
40.6199,0.053072
40.6987,0.053496
40.7775,0.0698568
40.8562,0.0578663
40.935,0.0581929
41.0138,0.0468763
41.0926,0.0470246
41.1714,0.0471442
41.2501,0.0653002
41.3289,0.0427515
41.4077,0.031393
41.4865,0.0622814
41.5653,0.0375257
41.6441,0.0588176
41.7228,0.0471992
41.8016,0.0550947
41.8804,0.0550023
41.9592,0.0618101
42.038,0.0422331
42.1167,0.0508968
42.1955,0.0834108
42.2743,0.0645981
42.3531,0.064506
42.4319,0.0899347
42.5107,0.0542603
42.5894,0.10386
42.6682,0.125756
42.747,0.10179
42.8258,0.12246
42.9046,0.0996874
42.9833,0.0848461
43.0621,0.0847612
43.1409,0.0535648
43.2197,0.0496576
43.2985,0.0454166
43.3773,0.0453342
43.456,0.0494104
43.5348,0.0632159
43.6136,0.0929071
43.6924,0.063052
43.7712,0.0449209
43.8499,0.0658749
43.9287,0.0446983
44.0075,0.0625907
44.0863,0.0523519
44.1651,0.0281624
44.2438,0.0706141
44.3226,0.0551581
44.4014,0.0612998
44.4802,0.0639337
44.559,0.05405
44.6378,0.0421404
44.7165,0.0533179
44.7953,0.0707533
44.8741,0.0649962
44.9529,0.0361305
45.0317,0.0519404
45.1104,0.0611329
45.1892,0.0513145
45.268,0.0510209
45.3468,0.0805599
45.4256,0.0708284
45.5044,0.0944667
45.5831,0.0979848
45.6619,0.148085
45.7407,0.179311
45.8195,0.201407
45.8983,0.28443
45.977,0.414127
46.0558,0.574458
46.1346,0.799676
46.2134,0.975607
46.2922,0.987265
46.371,0.861621
46.4497,0.657132
46.5285,0.458712
46.6073,0.288409
46.6861,0.202547
46.7649,0.151952
46.8436,0.124443
46.9224,0.109105
47.0012,0.0873932
47.08,0.0790124
47.1588,0.0721698
47.2376,0.0673036
47.3163,0.0838711
47.3951,0.0676874
47.4739,0.0566147
47.5527,0.0627254
47.6315,0.0781381
47.7102,0.0659833
47.789,0.0349724
47.8678,0.0717459
47.9466,0.0550304
48.0254,0.0484314
48.1042,0.0449197
48.1829,0.0621346
48.2617,0.0493915
48.3405,0.0417435
48.4193,0.0601282
48.4981,0.0378271
48.5768,0.0694551
48.6556,0.064175
48.7344,0.0645254
48.8132,0.058707
48.892,0.0521546
48.9708,0.0560601
49.0495,0.0659126
49.1283,0.0632406
49.2071,0.0535035
49.2859,0.0638672
49.3647,0.0362605
49.4434,0.0781997
49.5222,0.058064
49.601,0.0582736
49.6798,0.0510934
49.7586,0.0512903
49.8374,0.0553049
49.9161,0.0655436
49.9949,0.0476475
50.0737,0.0593172
50.1525,0.0594376
50.2313,0.0559942
50.31,0.0630059
50.3888,0.0775599
50.4676,0.0632073
50.5464,0.0525657
50.6252,0.0484754
50.7039,0.080425
50.7827,0.0829534
50.8615,0.0985099
50.9403,0.0726115
51.0191,0.0487308
51.0979,0.0603149
51.1766,0.0668564
51.2554,0.0568161
51.3342,0.0442406
51.413,0.0442309
51.4918,0.0636913
51.5705,0.0529317
51.6493,0.048731
51.7281,0.0486758
51.8069,0.0565668
51.8857,0.0777706
51.9645,0.0436456
52.0432,0.0382173
52.122,0.055808
52.2008,0.0591557
52.2796,0.0553859
52.3584,0.0471946
52.4371,0.0585279
52.5159,0.0707074
52.5947,0.0465789
52.6735,0.0612633
52.7523,0.0642292
52.8311,0.060876
52.9098,0.0668579
52.9886,0.0775155
53.0674,0.0634923
53.1462,0.00171071
53.225,0.0599958
53.3037,0.0629999
53.3825,0.0741376
53.4613,0.0526431
53.5401,0.028514
53.6189,0.0683255
53.6977,0.0761737
53.7764,0.0708541
53.8552,0.0759645
53.934,0.0853412
54.0128,0.0996802
54.0916,0.110478
54.1703,0.132345
54.2491,0.182921
54.3279,0.217941
54.4067,0.264365
54.4855,0.262183
54.5643,0.246499
54.643,0.24262
54.7218,0.176497
54.8006,0.161931
54.8794,0.117024
54.9582,0.0850934
55.0369,0.0781542
55.1157,0.0757428
55.1945,0.0806888
55.2733,0.0706877
55.3521,0.0707793
55.4309,0.0735317
55.5096,0.0522893
55.5884,0.0559661
55.6672,0.0625963
55.746,0.065737
55.8248,0.0597091
55.9035,0.0351535
55.9823,0.056669
56.0611,0.0633344
56.1399,0.0569968
56.2187,0.0358084
56.2974,0.0638513
56.3762,0.0501463
56.455,0.0610586
56.5338,0.0674181
56.6126,0.0367398
56.6914,0.050915
56.7701,0.0584979
56.8489,0.0513173
56.9277,0.0654088
57.0065,0.0517268
57.0853,0.0519336
57.164,0.0521407
57.2428,0.0481859
57.3216,0.0483786
57.4004,0.0387401
57.4792,0.0487359
57.558,0.0604503
57.6367,0.0701318
57.7155,0.0785788
57.7943,0.0642909
57.8731,0.0644472
57.9519,0.0612552
58.0306,0.0540201
58.1094,0.0579906
58.1882,0.0581364
58.267,0.0456999
58.3458,0.0584254
58.4246,0.0745128
58.5033,0.0347158
58.5821,0.0550238
58.6609,0.051
58.7397,0.0465327
58.8185,0.0466631
58.8972,0.0694369
58.976,0.0695645
59.0548,0.0516423
59.1336,0.0471596
59.2124,0.0634118
59.2912,0.0668639
59.3699,0.0600692
59.4487,0.0423726
59.5275,0.0424756
59.6063,0.0672766
59.6851,0.0640212
59.7638,0.0567166
59.8426,0.0765572
59.9214,0.0642406
60.0002,0.0569218
60.079,0.0430039
60.1578,0.0677567
60.2365,0.0483009
60.3153,0.060889
60.3941,0.0430851
60.4729,0.0608811
60.5517,0.0608719
60.6304,0.0482786
60.7092,0.0482629
60.788,0.0368243
60.8668,0.0527964
60.9456,0.0367346
61.0244,0.0366827
61.1031,0.0568012
61.1819,0.0567496
61.2607,0.0479409
61.3395,0.0604717
61.4183,0.0524401
61.497,0.0425716
61.5758,0.0425241
61.6546,0.0424778
61.7334,0.0637937
61.8122,0.0563674
61.8909,0.0670512
61.9697,0.0601092
62.0485,0.056247
62.1273,0.0635934
62.2061,0.0561758
62.2849,0.0473857
62.3636,0.0634953
62.4424,0.0599075
62.5212,0.0785807
62.6,0.0420545
62.6788,0.0518517
62.7575,0.0698766
62.8363,0.0518127
62.9151,0.0666799
62.9939,0.0597634
63.0727,0.0517687
63.1515,0.0666415
63.2302,0.0666323
63.309,0.0517411
63.3878,0.0517351
63.4666,0.0784124
63.5454,0.0471282
63.6241,0.0471264
63.7029,0.063266
63.7817,0.0597073
63.8605,0.0517267
63.9393,0.0471294
64.0181,0.0697768
64.0968,0.0517347
64.1756,0.0517383
64.2544,0.0597242
64.3332,0.0597283
64.412,0.0276675
64.4907,0.0559096
64.5695,0.0517502
64.6483,0.0559043
64.7271,0.0517363
64.8059,0.0783977
64.8847,0.0596689
64.9634,0.0470553
65.0422,0.0665034
65.121,0.0631222
65.1998,0.0630802
65.2786,0.0781763
65.3573,0.0514486
65.4361,0.0662864
65.5149,0.0593388
65.5937,0.0592933
65.6725,0.0661501
65.7513,0.0692673
65.83,0.0591598
65.9088,0.0511347
65.9876,0.0590741
66.0664,0.0412307
66.1452,0.0625509
66.2239,0.0463708
66.3027,0.0689769
66.3815,0.0689393
66.4603,0.0588394
66.5391,0.0588042
66.6179,0.0267059
66.6966,0.0507557
66.7754,0.0507244
66.8542,0.080028
66.933,0.0622068
67.0118,0.0547968
67.0905,0.0686582
67.1693,0.071641
67.2481,0.0824575
67.3269,0.0505437
67.4057,0.0585053
67.4845,0.0715571
67.5632,0.0620278
67.642,0.0620115
67.7208,0.0619964
67.7996,0.0619825
67.8784,0.0344164
67.9571,0.0263346
68.0359,0.0545645
68.1147,0.0457973
68.1935,0.0545459
68.2723,0.04056
68.351,0.0652562
68.4298,0.0545239
68.5086,0.0619006
68.5874,0.0714064
68.6662,0.0583303
68.745,0.0583251
68.8237,0.0405181
68.9025,0.0583128
68.9813,0.0544755
69.0601,0.0502934
69.1389,0.0502595
69.2176,0.0682633
69.2964,0.0543281
69.3752,0.0616577
69.454,0.00648591
69.5328,0.0541162
69.6116,0.0400116
69.6903,0.0576666
69.7691,0.064412
69.8479,0.0535201
69.9267,0.0533449
70.0055,0.0783386
70.0842,0.0567935
70.163,0.0325903
70.2418,0.0664317
70.3206,0.0523269
70.3994,0.0659973
70.4782,0.0592776
70.5569,0.0655687
70.6357,0.0621961
70.7145,0.0586448
70.7933,0.0510564
70.8721,0.0647419
70.9508,0.0544805
71.0296,0.0643505
71.1084,0.0540981
71.1872,0.0639778
71.266,0.0537358
71.3448,0.0409817
71.4235,0.0602978
71.5023,0.0663056
71.5811,0.0530803
71.6599,0.0629956
71.7387,0.0791755
71.8174,0.0814393
71.8962,0.0964279
71.975,0.0787922
72.0538,0.0961934
72.1326,0.107353
72.2114,0.101777
72.2901,0.103543
72.3689,0.0977788
72.4477,0.113891
72.5265,0.061826
72.6053,0.0617611
72.684,0.0675842
72.7628,0.0515881
72.8416,0.0646159
72.9204,0.0584087
72.9992,0.0728275
73.078,0.0583542
73.1567,0.0476099
73.2355,0.0514207
73.3143,0.0673594
73.3931,0.0583167
73.4719,0.0434392
73.5506,0.0336311
73.6294,0.058351
73.7082,0.058372
73.787,0.0615598
73.8658,0.067471
73.9445,0.0616245
74.0233,0.0477748
74.1021,0.0478164
74.1809,0.039104
74.2597,0.0517327
74.3385,0.0731353
74.4172,0.0619003
74.496,0.0393108
74.5748,0.0481252
74.6536,0.0853858
74.7324,0.119033
74.8111,0.0877146
74.8899,0.0652647
74.9687,0.05916
75.0475,0.0397418
75.1263,0.0737401
75.2051,0.0346526
75.2838,0.0764308
75.3626,0.0561457
75.4414,0.0595533
75.5202,0.0488887
75.599,0.0596705
75.6777,0.056381
75.7565,0.0528742
75.8353,0.0629887
75.9141,0.063038
75.9929,0.0565817
76.0717,0.056629
76.1504,0.0353137
76.2292,0.0567157
76.308,0.0493682
76.3868,0.0632871
76.4656,0.0494299
76.5443,0.0601845
76.6231,0.0568695
76.7019,0.0602389
76.7807,0.0569199
76.8595,0.0533786
76.9383,0.0664608
77.017,0.0602997
77.0958,0.0821869
77.1746,0.0294128
77.2534,0.0603107
77.3322,0.0664772
77.4109,0.0664659
77.4897,0.02938
77.5685,0.0569076
77.6473,0.0633845
77.7261,0.0633552
77.8049,0.0601624
77.8836,0.0632896
77.9624,0.0632486
78.0412,0.066208
78.12,0.0566452
78.1988,0.0661043
78.2775,0.0630433
78.3563,0.0564833
78.4351,0.0597686
78.5139,0.0489839
78.5927,0.0596498
78.6715,0.0488641
78.7502,0.0488039
78.829,0.0626308
78.9078,0.0712063
78.9866,0.0655161
79.0654,0.0624478
79.1441,0.0653935
79.2229,0.0623241
79.3017,0.0622615
79.3805,0.0590371
79.4593,0.0621363
79.538,0.0555698
79.6168,0.0481253
79.6956,0.0439064
79.7744,0.0518283
79.8532,0.0553284
79.932,0.0552707
80.0107,0.0516549
80.0895,0.0551589
80.1683,0.0616097
80.2471,0.0435123
80.3259,0.0476203
80.4046,0.0434146
80.4834,0.0672953
80.5622,0.0387266
80.641,0.0334657
80.7198,0.0432483
80.7986,0.0671398
80.8773,0.0580663
80.9561,0.061201
81.0349,0.0611764
81.1137,0.0611564
81.1925,0.047252
81.2712,0.0579668
81.35,0.0641272
81.4288,0.0908889
81.5076,0.0798372
81.5864,0.0579604
81.6652,0.0774543
81.7439,0.0697832
81.8227,0.069802
81.9015,0.0867105
81.9803,0.0775401
82.0591,0.0671323
82.1378,0.0699274
82.2166,0.0800539
82.2954,0.0613817
82.3742,0.054931
82.453,0.058331
82.5318,0.0728428
82.6105,0.0702584
82.6893,0.0436481
82.7681,0.0586076
82.8469,0.0677296
82.9257,0.0678146
83.0044,0.034158
83.0832,0.0482293
83.162,0.0521498
83.2408,0.0558098
83.3196,0.034552
83.3984,0.0524603
83.4771,0.0594717
83.5559,0.056241
83.6347,0.0402162
83.7135,0.0629781
83.7923,0.0630968
83.871,0.0600559
83.9498,0.0719759
84.0286,0.0533995
84.1074,0.0694676
84.1862,0.0749997
84.265,0.0537717
84.3437,0.0538933
84.4225,0.0609115
84.5013,0.0363098
84.5801,0.0577527
84.6589,0.0611655
84.7376,0.067399
84.8164,0.0807715
84.8952,0.0644986
84.974,0.0580322
85.0528,0.0465218
85.1316,0.064595
85.2103,0.058117
85.2891,0.0507591
85.3679,0.0546062
85.4467,0.0646919
85.5255,0.0647134
85.6042,0.0466893
85.683,0.0706365
85.7618,0.0467317
85.8406,0.067805
85.9194,0.0648182
85.9981,0.0583338
86.0769,0.0583531
86.1557,0.0548115
86.2345,0.0370249
86.3133,0.061741
86.3921,0.0584085
86.4708,0.0617599
86.5496,0.0548642
86.6284,0.05104
86.7072,0.0422717
86.786,0.0735335
86.8647,0.0548087
86.9435,0.0547791
87.0223,0.0547457
87.1011,0.0677792
87.1799,0.036861
87.2587,0.0615072
87.3374,0.0646046
87.4162,0.0464915
87.495,0.0703456
87.5738,0.0730252
87.6526,0.0542429
87.7313,0.0642135
87.8101,0.0460639
87.8889,0.0670063
87.9677,0.0607251
88.0465,0.0411276
88.1253,0.0604934
88.204,0.0570298
88.2828,0.0602488
88.3616,0.0662923
88.4404,0.0566552
88.5192,0.0529707
88.5979,0.0564046
88.6767,0.0527208
88.7555,0.073948
88.8343,0.0560315
88.9131,0.052349
88.9919,0.0591284
89.0706,0.0651755
89.1494,0.0481602
89.2282,0.0438825
89.307,0.0517459
89.3858,0.0646995
89.4645,0.0615765
89.5433,0.047575
89.6221,0.0581879
89.7009,0.0431935
89.7797,0.0670108
89.8585,0.0429782
89.9372,0.057758
90.016,0.0469302
90.0948,0.0506548
90.1736,0.0606206
90.2524,0.0664073
90.3311,0.0183077
90.4099,0.0571857
90.4887,0.0422169
90.5675,0.0660619
90.6463,0.0834172
90.7251,0.118521
90.8038,0.0712482
90.8826,0.076216
90.9614,0.0598333
91.0402,0.0497116
91.119,0.0458348
91.1977,0.0565117
91.2765,0.0495649
91.3553,0.053085
91.4341,0.0758755
91.5129,0.0494595
91.5916,0.0494342
91.6704,0.0681138
91.7492,0.075782
91.828,0.0624569
91.9068,0.0624514
91.9856,0.0680785
92.0643,0.0594461
92.1431,0.0757768
92.2219,0.0757894
92.3007,0.0805356
92.3795,0.0913368
92.4582,0.0681742
92.537,0.0708582
92.6158,0.0734549
92.6946,0.0495865
92.7734,0.0627028
92.8522,0.0830604
92.9309,0.0736478
93.0097,0.0372152
93.0885,0.0567604
93.1673,0.0599888
93.2461,0.0499958
93.3248,0.0569716
93.4036,0.0570485
93.4824,0.0422455
93.5612,0.0423292
93.64,0.0572985
93.7188,0.0425033
93.7975,0.0606391
93.8763,0.0607315
93.9551,0.046939
94.0339,0.0747693
94.1127,0.0610205
94.1914,0.0472323
94.2702,0.0580582
94.349,0.0581593
94.4278,0.0433775
94.5066,0.0615251
94.5854,0.0646341
94.6641,0.0676054
94.7429,0.0553081
94.8217,0.0278295
94.9005,0.0480667
94.9793,0.0620183
95.058,0.0520176
95.1368,0.0520776
95.2156,0.0556927
95.2944,0.0483633
95.3732,0.0557988
95.452,0.0522918
95.5307,0.0485193
95.6095,0.0559527
95.6883,0.0524431
95.7671,0.0625554
95.8459,0.039959
95.9246,0.0594903
96.0034,0.0685804
96.0822,0.0526841
96.161,0.0658025
96.2398,0.0563386
96.3186,0.0490033
96.3973,0.0629382
96.4761,0.0529221
96.5549,0.0209052
96.6337,0.0530168
96.7125,0.0599658
96.7912,0.0631743
96.87,0.0600594
96.9488,0.053204
97.0276,0.0601522
97.1064,0.0453147
97.1851,0.0453608
97.2639,0.0569478
97.3427,0.0569937
97.4215,0.0570396
97.5003,0.0455443
97.5791,0.0409906
97.6578,0.0571766
97.7366,0.0456811
97.8154,0.0572677
97.8942,0.0457722
97.973,0.0668703
98.0517,0.0607468
98.1305,0.0538903
98.2093,0.0608372
98.2881,0.0575391
98.3669,0.0502004
98.4457,0.0641305
98.5244,0.0671772
98.6032,0.0577009
98.682,0.0503496
98.7608,0.0729022
98.8396,0.0504054
98.9183,0.070196
98.9971,0.0504414
99.0759,0.0462851
99.1547,0.0462805
99.2335,0.00270707
99.3123,0.0578021
99.391,0.0729279
99.4698,0.030215
99.5486,0.064244
99.6274,0.0541375
99.7062,0.0641486
99.7849,0.0609308
99.8637,0.045988
99.9425,0.0539076
100.021,0.0412593
100.1,0.0638276
100.179,0.0605777
100.258,0.069524
100.336,0.0635455
100.415,0.0634472
100.494,0.0601873
100.573,0.0493638
100.652,0.0599922
100.73,0.0404124
100.809,0.0403166
100.888,0.0448212
100.967,0.0401287
101.045,0.0595199
101.124,0.0487046
101.203,0.0398593
101.282,0.0443726
101.361,0.0522717
101.439,0.0521916
101.518,0.0441317
101.597,0.0440582
101.676,0.0519696
101.754,0.0619662
101.833,0.0518394
101.912,0.0618434
101.991,0.0756352
102.07,0.0585748
102.148,0.0516251
102.227,0.0754931
102.306,0.0515448
102.385,0.0515106
102.464,0.0583856
102.542,0.0550209
102.621,0.0514458
102.7,0.0514342
102.779,0.0645005
102.857,0.0673755
102.936,0.0583393
103.015,0.0615155
103.094,0.0892064
103.173,0.0435154
103.251,0.0674743
103.33,0.0675137
103.409,0.0675611
103.488,0.0780539
103.566,0.0781139
103.645,0.055354
103.724,0.0518671
103.803,0.073296
103.882,0.0733808
103.96,0.0832315
104.039,0.0735641
104.118,0.0762237
104.197,0.0346173
104.276,0.0859063
104.354,0.0685879
104.433,0.056323
104.512,0.065958
104.591,0.0352125
104.669,0.0531451
104.748,0.0354778
104.827,0.0569764
104.906,0.0636217
104.985,0.0358999
105.063,0.0538475
105.142,0.0670661
105.221,0.046163
105.3,0.0578546
105.378,0.0544472
105.457,0.0581578
105.536,0.0226832
105.615,0.0510682
105.694,0.065097
105.772,0.051347
105.851,0.0683726
105.93,0.055427
106.009,0.0377393
106.087,0.0556283
106.166,0.0518574
106.245,0.055713
106.324,0.0317429
106.403,0.0519315
106.481,0.0626668
106.56,0.0626658
106.639,0.0658157
106.718,0.0626353
106.797,0.0518888
106.875,0.0592506
106.954,0.0625724
107.033,0.0592089
107.112,0.0518056
107.19,0.0556093
107.269,0.0624915
107.348,0.0475885
107.427,0.0656153
107.506,0.0590928
107.584,0.0714603
107.663,0.0590586
107.742,0.0516597
107.821,0.0685389
107.899,0.0623556
107.978,0.0623419
108.057,0.0554271
108.136,0.0554149
108.215,0.0428223
108.293,0.0740928
108.372,0.0553831
108.451,0.0427928
108.53,0.0553658
108.608,0.0553581
108.687,0.0553511
108.766,0.0622467
108.845,0.0622409
108.924,0.0588928
109.002,0.0653924
109.081,0.0622263
109.16,0.0514965
109.239,0.0514926
109.318,0.0473307
109.396,0.0473269
109.475,0.0712484
109.554,0.0427168
109.633,0.0473083
109.711,0.0514576
109.79,0.0588302
109.869,0.0653226
109.948,0.0552457
110.027,0.0621317
110.105,0.0587688
110.184,0.0472038
110.263,0.0513362
110.342,0.0682043
110.42,0.0681769
110.499,0.0586373
110.578,0.0470682
110.657,0.0310278
110.736,0.054994
110.814,0.0585251
110.893,0.0423569
110.972,0.0371087
111.051,0.0423016
111.13,0.0679261
111.208,0.0548281
111.287,0.0308068
111.366,0.0547741
111.445,0.0421661
111.523,0.0677914
111.602,0.067765
111.681,0.0760197
111.76,0.0508182
111.839,0.0581751
111.917,0.0581493
111.996,0.0676352
112.075,0.0676097
112.154,0.0704575
112.232,0.0580471
112.311,0.0464807
112.39,0.061339
112.469,0.0613134
112.548,0.0579446
112.626,0.0612595
112.705,0.067398
112.784,0.0417131
112.863,0.0611604
112.941,0.0577793
113.02,0.0610818
113.099,0.0363355
113.178,0.0727894
113.257,0.0609388
113.335,0.0361805
113.414,0.0698696
113.493,0.0698106
113.572,0.0607075
113.651,0.0724416
113.729,0.0637344
113.808,0.0666624
113.887,0.0570672
113.966,0.0534237
114.044,0.0495155
114.123,0.0406739
114.202,0.0451893
114.281,0.0451058
114.36,0.0660754
114.438,0.0629859
114.517,0.0629042
114.596,0.0527598
114.675,0.0400986
114.753,0.0739525
114.832,0.0560821
114.911,0.0486226
114.99,0.052371
115.069,0.0591989
115.147,0.0522245
115.226,0.0395724
115.305,0.0621479
115.384,0.0589187
115.463,0.0678951
115.541,0.064958
115.62,0.0648961
115.699,0.0437836
115.778,0.0517078
115.856,0.0436702
115.935,0.0675427
116.014,0.0
116.093,0.0550576
116.172,0.0728035
116.25,0.0475837
116.329,0.0549246
116.408,0.0582277
116.487,0.0776734
116.565,0.0643241
116.644,0.0547799
116.723,0.0612539
116.802,0.0547214
116.881,0.0724881
116.959,0.0511127
117.038,0.0546503
117.117,0.0724234
117.196,0.0579562
117.274,0.0821512
117.353,0.0669692
117.432,0.0384322
117.511,0.0640741
117.59,0.0669389
117.668,0.066932
117.747,0.0578843
117.826,0.0578801
117.905,0.0610387
117.984,0.0509733
118.062,0.0545313
118.141,0.0640427
118.22,0.0429905
118.299,0.0696732
118.377,0.0669187
118.456,0.050976
118.535,0.0696754
118.614,0.0545288
118.693,0.0610214
118.771,0.0471192
118.85,0.0639969
118.929,0.0544654
119.008,0.0639532
119.086,0.0609192
119.165,0.0577271
119.244,0.0771735
119.323,0.0608079
119.402,0.0468705
119.48,0.0575419
119.559,0.060645
119.638,0.0605819
119.717,0.0326505
119.795,0.0465601
119.874,0.0182465
119.953,0.0422498
119.992,0.0632614